Folder: graphene-production/data/derived_data/raman/20171207_GrNH2_from_20171130/20171207_GrNH2_map_1 (part 2)

File: D pos.txt
#XList		#YList		#IList
-1.838599	-0.760625	1351.64
-1.438599	-0.760625	1352.56
-1.038599	-0.760625	1352.77
-0.638599	-0.760625	1352
-0.238599	-0.760625	1352.35
0.161401	-0.760625	1352.18
0.561401	-0.760625	1351.13
0.961401	-0.760625	1352.18
1.361401	-0.760625	1350.78
1.761401	-0.760625	1350.17
2.161401	-0.760625	1352.09
-1.638599	-0.560625	1351.73
-1.238599	-0.560625	1352.22
-0.838599	-0.560625	1352.77
-0.438599	-0.560625	1352.33
-0.038599	-0.560625	1352.64
0.361401	-0.560625	1352.1
0.761401	-0.560625	1352
1.161401	-0.560625	1351.39
1.561401	-0.560625	1350.96
1.961401	-0.560625	1352.34
-1.838599	-0.360625	1351.07
-1.438599	-0.360625	1352.36
-1.038599	-0.360625	1352.43
-0.638599	-0.360625	1353
-0.238599	-0.360625	1352.84
0.161401	-0.360625	1352.47
0.561401	-0.360625	1351.53
0.961401	-0.360625	1351.58
1.361401	-0.360625	1351.17
1.761401	-0.360625	1350.83
2.161401	-0.360625	1352.57
-1.638599	-0.160625	1351.49
-1.238599	-0.160625	1352.56
-0.838599	-0.160625	1352.39
-0.438599	-0.160625	1352.66
-0.038599	-0.160625	1353.1
0.361401	-0.160625	1351.85
0.761401	-0.160625	1351.48
1.161401	-0.160625	1351.68
1.561401	-0.160625	1352.15
1.961401	-0.160625	1353.98
-1.838599	0.039375	1352.11
-1.438599	0.039375	1351.67
-1.038599	0.039375	1352.95
-0.638599	0.039375	1352.64
-0.238599	0.039375	1352.05
0.161401	0.039375	1352.36
0.561401	0.039375	1351.62
0.961401	0.039375	1352.05
1.361401	0.039375	1351.19
1.761401	0.039375	1352.38
2.161401	0.039375	1352.45
-1.638599	0.239375	1352.3
-1.238599	0.239375	1352.64
-0.838599	0.239375	1351.89
-0.438599	0.239375	1352.64
-0.038599	0.239375	1351.87
0.361401	0.239375	1351.63
0.761401	0.239375	1351.62
1.161401	0.239375	1351.49
1.561401	0.239375	1352.09
1.961401	0.239375	1352.07
-1.838599	0.439375	1353.96
-1.438599	0.439375	1352.74
-1.038599	0.439375	1353.03
-0.638599	0.439375	1352.03
-0.238599	0.439375	1351.84
0.161401	0.439375	1351.86
0.561401	0.439375	1351.71
0.961401	0.439375	1351.67
1.361401	0.439375	1351.04
1.761401	0.439375	1352.04
2.161401	0.439375	1351.96
-1.638599	0.639375	1352.93
-1.238599	0.639375	1352.93
-0.838599	0.639375	1352.45
-0.438599	0.639375	1352.44
-0.038599	0.639375	1351.84
0.361401	0.639375	1351.07
0.761401	0.639375	1351.95
1.161401	0.639375	1351.27
1.561401	0.639375	1353.46
1.961401	0.639375	1353.13
-1.838599	0.839375	1354.98
-1.438599	0.839375	1352.48
-1.038599	0.839375	1352.63
-0.638599	0.839375	1352.38
-0.238599	0.839375	1351.75
0.161401	0.839375	1351.47
0.561401	0.839375	1351.28
0.961401	0.839375	1352.38
1.361401	0.839375	1350.67
1.761401	0.839375	1353.05
2.161401	0.839375	1352.02
-1.638599	1.039375	1353.59
-1.238599	1.039375	1351.4
-0.838599	1.039375	1352.37
-0.438599	1.039375	1352.27
-0.038599	1.039375	1352.41
0.361401	1.039375	1350.66
0.761401	1.039375	1353.13
1.161401	1.039375	1351.6
1.561401	1.039375	1353.1
1.961401	1.039375	1352.78
-1.838599	1.239375	1350.98
-1.438599	1.239375	1352.58
-1.038599	1.239375	1352.62
-0.638599	1.239375	1351.11
-0.238599	1.239375	1350.71
0.161401	1.239375	1351.88
0.561401	1.239375	1354.18
0.961401	1.239375	1353.34
1.361401	1.239375	1353.41
1.761401	1.239375	1352.56
2.161401	1.239375	1352.58
-1.638599	1.439375	1355.88
-1.238599	1.439375	1352.54
-0.838599	1.439375	1352.19
-0.438599	1.439375	1351.84
-0.038599	1.439375	1347.89
0.361401	1.439375	1349.55
0.761401	1.439375	1350.57
1.161401	1.439375	1358.62
1.561401	1.439375	1351.24
1.961401	1.439375	1352.25
-1.838599	1.639375	1367.66
-1.438599	1.639375	1344.59
-1.038599	1.639375	1352.14
-0.638599	1.639375	1353.18
-0.238599	1.639375	1350.29
0.161401	1.639375	1350.83
0.561401	1.639375	1354.25
0.961401	1.639375	1356.2
1.361401	1.639375	1351.31
1.761401	1.639375	1357.03
2.161401	1.639375	1359.05
-1.638599	1.839375	1446.68
-1.238599	1.839375	1356.86
-0.838599	1.839375	1352.38
-0.438599	1.839375	1349.29
-0.038599	1.839375	1343.5
0.361401	1.839375	1372.89
0.761401	1.839375	1354.15
1.161401	1.839375	1355.05
1.561401	1.839375	1353.8
1.961401	1.839375	1355.84
-1.838599	2.039375	1347.41
-1.438599	2.039375	942.882
-1.038599	2.039375	1506.24
-0.638599	2.039375	1334.7
-0.238599	2.039375	1337.19
0.161401	2.039375	1361.51
0.561401	2.039375	1359.19
0.961401	2.039375	1353.73
1.361401	2.039375	1352.39
1.761401	2.039375	1352.81
2.161401	2.039375	1353.78
-1.638599	2.239375	919.655
-1.238599	2.239375	1308.53
-0.838599	2.239375	2870.63
-0.438599	2.239375	1369.7
-0.038599	2.239375	1363.09
0.361401	2.239375	1355.1
0.761401	2.239375	1354.14
1.161401	2.239375	1351.93
1.561401	2.239375	1351.36
1.961401	2.239375	1353.41
2.161401	2.239375	1355.46

File: Dp FWHM.txt
#XList		#YList		#IList
-1.838599	-0.760625	17.3505
-1.438599	-0.760625	19.5805
-1.038599	-0.760625	18.4398
-0.638599	-0.760625	19.738
-0.238599	-0.760625	23.8215
0.161401	-0.760625	23.9925
0.561401	-0.760625	18.3416
0.961401	-0.760625	17.1039
1.361401	-0.760625	15.9358
1.761401	-0.760625	17.3032
2.161401	-0.760625	21.2671
-1.638599	-0.560625	19.4667
-1.238599	-0.560625	18.9121
-0.838599	-0.560625	18.9217
-0.438599	-0.560625	17.7993
-0.038599	-0.560625	26.8178
0.361401	-0.560625	23.8295
0.761401	-0.560625	19.0328
1.161401	-0.560625	16.3192
1.561401	-0.560625	17.2983
1.961401	-0.560625	20.6256
-1.838599	-0.360625	18.4438
-1.438599	-0.360625	18.4153
-1.038599	-0.360625	18.6187
-0.638599	-0.360625	20.0985
-0.238599	-0.360625	23.1723
0.161401	-0.360625	24.0616
0.561401	-0.360625	25.3252
0.961401	-0.360625	22.024
1.361401	-0.360625	18.3447
1.761401	-0.360625	16.4265
2.161401	-0.360625	14.1776
-1.638599	-0.160625	20.4782
-1.238599	-0.160625	16.9644
-0.838599	-0.160625	20.2715
-0.438599	-0.160625	16.8987
-0.038599	-0.160625	26.8998
0.361401	-0.160625	24.7804
0.761401	-0.160625	23.8574
1.161401	-0.160625	19.6544
1.561401	-0.160625	15.0859
1.961401	-0.160625	15.5118
-1.838599	0.039375	17.9228
-1.438599	0.039375	16.8093
-1.038599	0.039375	18.2527
-0.638599	0.039375	17.8172
-0.238599	0.039375	18.5065
0.161401	0.039375	20.4336
0.561401	0.039375	23.2448
0.961401	0.039375	20.1587
1.361401	0.039375	15.2009
1.761401	0.039375	15.7371
2.161401	0.039375	16.9504
-1.638599	0.239375	21.3037
-1.238599	0.239375	18.0702
-0.838599	0.239375	19.6133
-0.438599	0.239375	17.5084
-0.038599	0.239375	21.0058
0.361401	0.239375	19.8123
0.761401	0.239375	21.098
1.161401	0.239375	20.6384
1.561401	0.239375	15.1032
1.961401	0.239375	15.7589
-1.838599	0.439375	18.2802
-1.438599	0.439375	19.6017
-1.038599	0.439375	21.001
-0.638599	0.439375	20.2074
-0.238599	0.439375	19.7891
0.161401	0.439375	18.8233
0.561401	0.439375	17.289
0.961401	0.439375	18.4676
1.361401	0.439375	17.2225
1.761401	0.439375	15.8717
2.161401	0.439375	14.7531
-1.638599	0.639375	20.0368
-1.238599	0.639375	21.195
-0.838599	0.639375	19.4595
-0.438599	0.639375	16.9718
-0.038599	0.639375	18.7617
0.361401	0.639375	16.9721
0.761401	0.639375	17.0944
1.161401	0.639375	20.0985
1.561401	0.639375	18.5693
1.961401	0.639375	16.904
-1.838599	0.839375	12.1118
-1.438599	0.839375	17.9299
-1.038599	0.839375	19.0745
-0.638599	0.839375	15.8018
-0.238599	0.839375	16.1601
0.161401	0.839375	16.5094
0.561401	0.839375	12.8443
0.961401	0.839375	17.7569
1.361401	0.839375	17.8847
1.761401	0.839375	17.0721
2.161401	0.839375	17.5655
-1.638599	1.039375	22.7781
-1.238599	1.039375	16.9531
-0.838599	1.039375	18.1686
-0.438599	1.039375	16.4464
-0.038599	1.039375	18.9209
0.361401	1.039375	18.5828
0.761401	1.039375	16.3201
1.161401	1.039375	9.845082
1.561401	1.039375	9.787048
1.961401	1.039375	21.5782
-1.838599	1.239375	40.1155
-1.438599	1.239375	20.4471
-1.038599	1.239375	15.234
-0.638599	1.239375	17.6325
-0.238599	1.239375	11.7578
0.161401	1.239375	18.7385
0.561401	1.239375	2595.04
0.961401	1.239375	8.861623
1.361401	1.239375	51.3671
1.761401	1.239375	1.244480
2.161401	1.239375	2.720996
-1.638599	1.439375	8.439833
-1.238599	1.439375	17.5094
-0.838599	1.439375	19.0655
-0.438599	1.439375	10.3496
-0.038599	1.439375	2595.04
0.361401	1.439375	8.360801
0.761401	1.439375	2.107187
1.161401	1.439375	21.7107
1.561401	1.439375	6.136401
1.961401	1.439375	480.147
-1.838599	1.639375	0.639804
-1.438599	1.639375	2.276974
-1.038599	1.639375	29.3167
-0.638599	1.639375	14.477
-0.238599	1.639375	2.292265
0.161401	1.639375	0.639804
0.561401	1.639375	1.414024
0.961401	1.639375	1.423054
1.361401	1.639375	16.4788
1.761401	1.639375	0.639804
2.161401	1.639375	1.069628
-1.638599	1.839375	4.636390
-1.238599	1.839375	3.137533
-0.838599	1.839375	11.9471
-0.438599	1.839375	9.128913
-0.038599	1.839375	0.639804
0.361401	1.839375	0.670634
0.761401	1.839375	0.857934
1.161401	1.839375	22.738
1.561401	1.839375	18.6652
1.961401	1.839375	9.455568
-1.838599	2.039375	0.639804
-1.438599	2.039375	6.904206
-1.038599	2.039375	0.752465
-0.638599	2.039375	1.388291
-0.238599	2.039375	21.4036
0.161401	2.039375	11.2932
0.561401	2.039375	3.579566
0.961401	2.039375	20.025
1.361401	2.039375	15.648
1.761401	2.039375	12.91
2.161401	2.039375	17.4173
-1.638599	2.239375	252.84
-1.238599	2.239375	0.639804
-0.838599	2.239375	11.5156
-0.438599	2.239375	4.327365
-0.038599	2.239375	0.639804
0.361401	2.239375	5.570399
0.761401	2.239375	13.7018
1.161401	2.239375	18.1282
1.561401	2.239375	19.0257
1.961401	2.239375	16.9598
2.161401	2.239375	6.916061

File: Dp int.txt
#XList		#YList		#IList
-1.838599	-0.760625	110.573
-1.438599	-0.760625	163.697
-1.038599	-0.760625	162.23
-0.638599	-0.760625	169.049
-0.238599	-0.760625	152.023
0.161401	-0.760625	184.241
0.561401	-0.760625	262.34
0.961401	-0.760625	171.087
1.361401	-0.760625	161.063
1.761401	-0.760625	67.7728
2.161401	-0.760625	70.2007
-1.638599	-0.560625	173.677
-1.238599	-0.560625	174.984
-0.838599	-0.560625	166.782
-0.438599	-0.560625	161.033
-0.038599	-0.560625	146.607
0.361401	-0.560625	214.839
0.761401	-0.560625	193.129
1.161401	-0.560625	172.434
1.561401	-0.560625	122.61
1.961401	-0.560625	48.2469
-1.838599	-0.360625	145.996
-1.438599	-0.360625	176.789
-1.038599	-0.360625	169.31
-0.638599	-0.360625	161.926
-0.238599	-0.360625	148.626
0.161401	-0.360625	157.381
0.561401	-0.360625	204.072
0.961401	-0.360625	168.704
1.361401	-0.360625	134.28
1.761401	-0.360625	32.2312
2.161401	-0.360625	36.8608
-1.638599	-0.160625	178.795
-1.238599	-0.160625	155.25
-0.838599	-0.160625	165.755
-0.438599	-0.160625	152.125
-0.038599	-0.160625	145.794
0.361401	-0.160625	187.631
0.761401	-0.160625	169.053
1.161401	-0.160625	148.918
1.561401	-0.160625	62.477
1.961401	-0.160625	24.9643
-1.838599	0.039375	75.0071
-1.438599	0.039375	163.318
-1.038599	0.039375	149.5
-0.638599	0.039375	149.481
-0.238599	0.039375	161.523
0.161401	0.039375	166.84
0.561401	0.039375	160.299
0.961401	0.039375	175.673
1.361401	0.039375	90.3882
1.761401	0.039375	97.9018
2.161401	0.039375	58.4888
-1.638599	0.239375	114.356
-1.238599	0.239375	139.034
-0.838599	0.239375	158.558
-0.438599	0.239375	155.028
-0.038599	0.239375	165.106
0.361401	0.239375	164.057
0.761401	0.239375	163.689
1.161401	0.239375	163.274
1.561401	0.239375	144.625
1.961401	0.239375	190.974
-1.838599	0.439375	35.5098
-1.438599	0.439375	123.18
-1.038599	0.439375	144.473
-0.638599	0.439375	152.953
-0.238599	0.439375	153.609
0.161401	0.439375	164.89
0.561401	0.439375	144.993
0.961401	0.439375	165.653
1.361401	0.439375	125.784
1.761401	0.439375	172.964
2.161401	0.439375	163.491
-1.638599	0.639375	79.7428
-1.238599	0.639375	123.256
-0.838599	0.639375	141.537
-0.438599	0.639375	140.404
-0.038599	0.639375	163.739
0.361401	0.639375	123.811
0.761401	0.639375	108.822
1.161401	0.639375	130.416
1.561401	0.639375	58.3195
1.961401	0.639375	97.4305
-1.838599	0.839375	13.6621
-1.438599	0.839375	90.5133
-1.038599	0.839375	133.487
-0.638599	0.839375	145.53
-0.238599	0.839375	118.744
0.161401	0.839375	89.5748
0.561401	0.839375	37.0666
0.961401	0.839375	52.1433
1.361401	0.839375	53.2787
1.761401	0.839375	15.2507
2.161401	0.839375	41.1608
-1.638599	1.039375	18.6804
-1.238599	1.039375	113.587
-0.838599	1.039375	115.704
-0.438599	1.039375	92.0282
-0.038599	1.039375	46.284
0.361401	1.039375	20.244
0.761401	1.039375	14.9427
1.161401	1.039375	17.5024
1.561401	1.039375	7.834059
1.961401	1.039375	6.527115
-1.838599	1.239375	2.943897
-1.438599	1.239375	29.9239
-1.038599	1.239375	84.6086
-0.638599	1.239375	59.7471
-0.238599	1.239375	25.4404
0.161401	1.239375	7.992402
0.561401	1.239375	0.654020
0.961401	1.239375	9.541134
1.361401	1.239375	8.817480
1.761401	1.239375	36.1752
2.161401	1.239375	7.639462
-1.638599	1.439375	4.016898
-1.238599	1.439375	24.9854
-0.838599	1.439375	32.4361
-0.438599	1.439375	14.3001
-0.038599	1.439375	1.183931
0.361401	1.439375	9.612044
0.761401	1.439375	7.968375
1.161401	1.439375	6.951018
1.561401	1.439375	6.700521
1.961401	1.439375	0.558860
-1.838599	1.639375	-3.389755
-1.438599	1.639375	10.3912
-1.038599	1.639375	11.3036
-0.638599	1.639375	8.455282
-0.238599	1.639375	11.2003
0.161401	1.639375	4.556099
0.561401	1.639375	-3.257304
0.961401	1.639375	-10.9405
1.361401	1.639375	11.8465
1.761401	1.639375	-20.6693
2.161401	1.639375	2.830746
-1.638599	1.839375	5.384411
-1.238599	1.839375	-6.888575
-0.838599	1.839375	5.918362
-0.438599	1.839375	1.879175
-0.038599	1.839375	-2.944954
0.361401	1.839375	-37.8729
0.761401	1.839375	-17.9495
1.161401	1.839375	29.5844
1.561401	1.839375	18.6095
1.961401	1.839375	5.771115
-1.838599	2.039375	-0.177203
-1.438599	2.039375	1.408064
-1.038599	2.039375	10.5655
-0.638599	2.039375	4.419336
-0.238599	2.039375	-1.536359
0.161401	2.039375	4.940231
0.561401	2.039375	9.899825
0.961401	2.039375	42.2407
1.361401	2.039375	69.945
1.761401	2.039375	16.0005
2.161401	2.039375	8.523587
-1.638599	2.239375	1.313524
-1.238599	2.239375	9.038146
-0.838599	2.239375	1.386421
-0.438599	2.239375	-6.858758
-0.038599	2.239375	3.616285
0.361401	2.239375	8.064608
0.761401	2.239375	29.3589
1.161401	2.239375	138.019
1.561401	2.239375	80.865
1.961401	2.239375	19.8954
2.161401	2.239375	12.0464

File: Dp pos.txt
#XList		#YList		#IList
-1.838599	-0.760625	1622.63
-1.438599	-0.760625	1620.67
-1.038599	-0.760625	1621.76
-0.638599	-0.760625	1620.13
-0.238599	-0.760625	1619.24
0.161401	-0.760625	1619.53
0.561401	-0.760625	1619.91
0.961401	-0.760625	1621.92
1.361401	-0.760625	1622.17
1.761401	-0.760625	1620.97
2.161401	-0.760625	1618.43
-1.638599	-0.560625	1621.67
-1.238599	-0.560625	1621.39
-0.838599	-0.560625	1621.79
-0.438599	-0.560625	1621.66
-0.038599	-0.560625	1618.89
0.361401	-0.560625	1618.51
0.761401	-0.560625	1620.67
1.161401	-0.560625	1622.65
1.561401	-0.560625	1621.56
1.961401	-0.560625	1621.14
-1.838599	-0.360625	1620.97
-1.438599	-0.360625	1621.46
-1.038599	-0.360625	1620.9
-0.638599	-0.360625	1621.28
-0.238599	-0.360625	1620.13
0.161401	-0.360625	1619.39
0.561401	-0.360625	1618.08
0.961401	-0.360625	1619.28
1.361401	-0.360625	1620.31
1.761401	-0.360625	1620.19
2.161401	-0.360625	1622.25
-1.638599	-0.160625	1619.88
-1.238599	-0.160625	1622.3
-0.838599	-0.160625	1621.33
-0.438599	-0.160625	1622.31
-0.038599	-0.160625	1618.6
0.361401	-0.160625	1618.64
0.761401	-0.160625	1619.12
1.161401	-0.160625	1619.79
1.561401	-0.160625	1620.84
1.961401	-0.160625	1618.56
-1.838599	0.039375	1621.7
-1.438599	0.039375	1622.16
-1.038599	0.039375	1621.51
-0.638599	0.039375	1621.04
-0.238599	0.039375	1621.37
0.161401	0.039375	1621.01
0.561401	0.039375	1620.12
0.961401	0.039375	1620.95
1.361401	0.039375	1621.97
1.761401	0.039375	1621.33
2.161401	0.039375	1620.83
-1.638599	0.239375	1620.85
-1.238599	0.239375	1621.3
-0.838599	0.239375	1621.02
-0.438599	0.239375	1621.41
-0.038599	0.239375	1619.51
0.361401	0.239375	1620.33
0.761401	0.239375	1619.89
1.161401	0.239375	1619.93
1.561401	0.239375	1620.07
1.961401	0.239375	1620.07
-1.838599	0.439375	1623.28
-1.438599	0.439375	1621.63
-1.038599	0.439375	1620.81
-0.638599	0.439375	1620.72
-0.238599	0.439375	1621.02
0.161401	0.439375	1621.23
0.561401	0.439375	1621.68
0.961401	0.439375	1619.86
1.361401	0.439375	1621.64
1.761401	0.439375	1619.53
2.161401	0.439375	1621.32
-1.638599	0.639375	1622.17
-1.238599	0.639375	1621.42
-0.838599	0.639375	1621.61
-0.438599	0.639375	1622.38
-0.038599	0.639375	1621.29
0.361401	0.639375	1621.08
0.761401	0.639375	1621.54
1.161401	0.639375	1620.31
1.561401	0.639375	1621.93
1.961401	0.639375	1620.97
-1.838599	0.839375	1626.37
-1.438599	0.839375	1621.6
-1.038599	0.839375	1621.4
-0.638599	0.839375	1623.06
-0.238599	0.839375	1621.61
0.161401	0.839375	1622.18
0.561401	0.839375	1623.58
0.961401	0.839375	1621
1.361401	0.839375	1622.11
1.761401	0.839375	1625.04
2.161401	0.839375	1621.91
-1.638599	1.039375	1617.51
-1.238599	1.039375	1622.27
-0.838599	1.039375	1622.11
-0.438599	1.039375	1622.66
-0.038599	1.039375	1620.77
0.361401	1.039375	1619.61
0.761401	1.039375	1618.51
1.161401	1.039375	1625.85
1.561401	1.039375	1624.52
1.961401	1.039375	1623.18
-1.838599	1.239375	1627.3
-1.438599	1.239375	1620.88
-1.038599	1.239375	1622.09
-0.638599	1.239375	1622.14
-0.238599	1.239375	1624.59
0.161401	1.239375	1620.91
0.561401	1.239375	1727.37
0.961401	1.239375	1625.07
1.361401	1.239375	1608.99
1.761401	1.239375	1622.02
2.161401	1.239375	1631.48
-1.638599	1.439375	1622.99
-1.238599	1.439375	1623.18
-0.838599	1.439375	1622.23
-0.438599	1.439375	1624.43
-0.038599	1.439375	2986.05
0.361401	1.439375	1617.73
0.761401	1.439375	1617.69
1.161401	1.439375	1615.53
1.561401	1.439375	1622.84
1.961401	1.439375	1549.31
-1.838599	1.639375	1629.35
-1.438599	1.639375	1621.34
-1.038599	1.639375	1623.47
-0.638599	1.639375	1620.49
-0.238599	1.639375	1625.4
0.161401	1.639375	1621.26
0.561401	1.639375	1627.12
0.961401	1.639375	1631.32
1.361401	1.639375	1623.8
1.761401	1.639375	1619.58
2.161401	1.639375	1621.73
-1.638599	1.839375	1622.41
-1.238599	1.839375	1601.21
-0.838599	1.839375	1620.82
-0.438599	1.839375	1633.14
-0.038599	1.839375	1624.49
0.361401	1.839375	1603.91
0.761401	1.839375	1638.55
1.161401	1.839375	1617.77
1.561401	1.839375	1614.83
1.961401	1.839375	1618.57
-1.838599	2.039375	26.1874
-1.438599	2.039375	1621.38
-1.038599	2.039375	1618.7
-0.638599	2.039375	1625.1
-0.238599	2.039375	1542.11
0.161401	2.039375	1632.35
0.561401	2.039375	1625.86
0.961401	2.039375	1617.92
1.361401	2.039375	1619.53
1.761401	2.039375	1620.93
2.161401	2.039375	1616.6
-1.638599	2.239375	1428.42
-1.238599	2.239375	1726.58
-0.838599	2.239375	1666.34
-0.438599	2.239375	1622.37
-0.038599	2.239375	1618.59
0.361401	2.239375	1614.21
0.761401	2.239375	1621.29
1.161401	2.239375	1620.23
1.561401	2.239375	1620.3
1.961401	2.239375	1619.18
2.161401	2.239375	1623.99

File: G FWHM.txt
#XList		#YList		#IList
-1.838599	-0.760625	43.5569
-1.438599	-0.760625	32.8245
-1.038599	-0.760625	36.5819
-0.638599	-0.760625	33.7448
-0.238599	-0.760625	27.2203
0.161401	-0.760625	30.1383
0.561401	-0.760625	40.5732
0.961401	-0.760625	45.0699
1.361401	-0.760625	44.5503
1.761401	-0.760625	48.4439
2.161401	-0.760625	43.6206
-1.638599	-0.560625	36.658
-1.238599	-0.560625	32.9093
-0.838599	-0.560625	35.3544
-0.438599	-0.560625	35.8521
-0.038599	-0.560625	24.3146
0.361401	-0.560625	29.2376
0.761401	-0.560625	36.5955
1.161401	-0.560625	47.0328
1.561401	-0.560625	46.3233
1.961401	-0.560625	39.751
-1.838599	-0.360625	39.2273
-1.438599	-0.360625	34.0497
-1.038599	-0.360625	35.1297
-0.638599	-0.360625	35.574
-0.238599	-0.360625	28.701
0.161401	-0.360625	25.7032
0.561401	-0.360625	28.5258
0.961401	-0.360625	36.1891
1.361401	-0.360625	47.039
1.761401	-0.360625	50.2651
2.161401	-0.360625	42.3006
-1.638599	-0.160625	37.6964
-1.238599	-0.160625	37.0104
-0.838599	-0.160625	34.3382
-0.438599	-0.160625	36.0148
-0.038599	-0.160625	25.8358
0.361401	-0.160625	26.8155
0.761401	-0.160625	29.4028
1.161401	-0.160625	44.0341
1.561401	-0.160625	49.1398
1.961401	-0.160625	57.6822
-1.838599	0.039375	39.455
-1.438599	0.039375	36.3655
-1.038599	0.039375	36.456
-0.638599	0.039375	37.987
-0.238599	0.039375	37.3676
0.161401	0.039375	28.6935
0.561401	0.039375	30.1179
0.961401	0.039375	35.9104
1.361401	0.039375	46.9404
1.761401	0.039375	45.4895
2.161401	0.039375	49.5671
-1.638599	0.239375	33.4359
-1.238599	0.239375	34.0332
-0.838599	0.239375	33.8006
-0.438599	0.239375	36.4647
-0.038599	0.239375	36.6939
0.361401	0.239375	37.5606
0.761401	0.239375	33.7623
1.161401	0.239375	43.205
1.561401	0.239375	44.0706
1.961401	0.239375	45.4569
-1.838599	0.439375	32.2029
-1.438599	0.439375	33.1757
-1.038599	0.439375	33.6761
-0.638599	0.439375	33.9978
-0.238599	0.439375	37.5706
0.161401	0.439375	43.1543
0.561401	0.439375	42.9648
0.961401	0.439375	40.8188
1.361401	0.439375	44.454
1.761401	0.439375	43.5878
2.161401	0.439375	48.1139
-1.638599	0.639375	33.8849
-1.238599	0.639375	35.1851
-0.838599	0.639375	35.1967
-0.438599	0.639375	39.5505
-0.038599	0.639375	41.2264
0.361401	0.639375	46.1057
0.761401	0.639375	41.8689
1.161401	0.639375	44.997
1.561401	0.639375	42.7811
1.961401	0.639375	45.0773
-1.838599	0.839375	40.065
-1.438599	0.839375	35.0544
-1.038599	0.839375	38.5713
-0.638599	0.839375	37.9709
-0.238599	0.839375	43.3516
0.161401	0.839375	43.6582
0.561401	0.839375	49.3576
0.961401	0.839375	44.0849
1.361401	0.839375	47.4399
1.761401	0.839375	45.5769
2.161401	0.839375	47.2761
-1.638599	1.039375	29.643
-1.238599	1.039375	37.7084
-0.838599	1.039375	41.6013
-0.438599	1.039375	42.5058
-0.038599	1.039375	43.9743
0.361401	1.039375	37.4479
0.761401	1.039375	50.5759
1.161401	1.039375	55.9747
1.561401	1.039375	59.6586
1.961401	1.039375	54.4086
-1.838599	1.239375	20.9467
-1.438599	1.239375	32.7975
-1.038599	1.239375	39.5116
-0.638599	1.239375	41.6112
-0.238599	1.239375	44.4165
0.161401	1.239375	49.4052
0.561401	1.239375	60.4997
0.961401	1.239375	34.2863
1.361401	1.239375	32.4873
1.761401	1.239375	72.6441
2.161401	1.239375	47.2219
-1.638599	1.439375	34.7621
-1.238599	1.439375	36.8172
-0.838599	1.439375	36.349
-0.438599	1.439375	39.9894
-0.038599	1.439375	48.8607
0.361401	1.439375	102.377
0.761401	1.439375	66.5957
1.161401	1.439375	55.2578
1.561401	1.439375	46.0396
1.961401	1.439375	44.1745
-1.838599	1.639375	139.586
-1.438599	1.639375	35.1695
-1.038599	1.639375	30.0625
-0.638599	1.639375	49.2336
-0.238599	1.639375	110.502
0.161401	1.639375	25.9321
0.561401	1.639375	56.1717
0.961401	1.639375	65.2065
1.361401	1.639375	51.5799
1.761401	1.639375	51.9605
2.161401	1.639375	64.2794
-1.638599	1.839375	41.9985
-1.238599	1.839375	38.184
-0.838599	1.839375	22.8972
-0.438599	1.839375	32.9832
-0.038599	1.839375	2.428104
0.361401	1.839375	51.5468
0.761401	1.839375	71.4743
1.161401	1.839375	56.2041
1.561401	1.839375	58.7643
1.961401	1.839375	50.1077
-1.838599	2.039375	68.6798
-1.438599	2.039375	43.4498
-1.038599	2.039375	4.621848
-0.638599	2.039375	61.4137
-0.238599	2.039375	520.514
0.161401	2.039375	42.7524
0.561401	2.039375	60.8536
0.961401	2.039375	56.8604
1.361401	2.039375	51.322
1.761401	2.039375	54.0533
2.161401	2.039375	33.7471
-1.638599	2.239375	2595.04
-1.238599	2.239375	31.176
-0.838599	2.239375	3.780196
-0.438599	2.239375	36.634
-0.038599	2.239375	46.8297
0.361401	2.239375	54.7718
0.761401	2.239375	54.4821
1.161401	2.239375	48.0709
1.561401	2.239375	47.356
1.961401	2.239375	34.4079
2.161401	2.239375	37.1754