Folder: graphene-production/data/derived_data/raman/20171207_GrNH2_from_20171130/20171207_GrNH2_map_1 (part 3)

File: G int.txt
#XList		#YList		#IList
-1.838599	-0.760625	259.435
-1.438599	-0.760625	411.943
-1.038599	-0.760625	416.532
-0.638599	-0.760625	437.235
-0.238599	-0.760625	536.379
0.161401	-0.760625	537.096
0.561401	-0.760625	619.064
0.961401	-0.760625	383.792
1.361401	-0.760625	362.236
1.761401	-0.760625	139.894
2.161401	-0.760625	196.28
-1.638599	-0.560625	415.239
-1.238599	-0.560625	442.945
-0.838599	-0.560625	418.184
-0.438599	-0.560625	420.63
-0.038599	-0.560625	544.47
0.361401	-0.560625	621.51
0.761401	-0.560625	501.475
1.161401	-0.560625	362.406
1.561401	-0.560625	269.918
1.961401	-0.560625	99.8849
-1.838599	-0.360625	362.605
-1.438599	-0.360625	433.137
-1.038599	-0.360625	425.274
-0.638599	-0.360625	387.059
-0.238599	-0.360625	438.364
0.161401	-0.360625	572.762
0.561401	-0.360625	612.807
0.961401	-0.360625	434.632
1.361401	-0.360625	266.47
1.761401	-0.360625	92.0983
2.161401	-0.360625	85.8948
-1.638599	-0.160625	431.571
-1.238599	-0.160625	385.478
-0.838599	-0.160625	394.146
-0.438599	-0.160625	393.721
-0.038599	-0.160625	489.17
0.361401	-0.160625	589.527
0.761401	-0.160625	517.601
1.161401	-0.160625	326.241
1.561401	-0.160625	143.04
1.961401	-0.160625	84.0596
-1.838599	0.039375	170.874
-1.438599	0.039375	356.309
-1.038599	0.039375	391.579
-0.638599	0.039375	378.123
-0.238599	0.039375	385.232
0.161401	0.039375	487.178
0.561401	0.039375	529.271
0.961401	0.039375	434.618
1.361401	0.039375	234.956
1.761401	0.039375	299.148
2.161401	0.039375	154.29
-1.638599	0.239375	303.516
-1.238599	0.239375	366.594
-0.838599	0.239375	411.255
-0.438599	0.239375	400.992
-0.038599	0.239375	377.936
0.361401	0.239375	407.735
0.761401	0.239375	440.721
1.161401	0.239375	341.046
1.561401	0.239375	419.245
1.961401	0.239375	516.67
-1.838599	0.439375	85.9738
-1.438599	0.439375	354.051
-1.038599	0.439375	383.034
-0.638599	0.439375	393.84
-0.238599	0.439375	388.165
0.161401	0.439375	358.017
0.561401	0.439375	347.709
0.961401	0.439375	375.968
1.361401	0.439375	263.35
1.761401	0.439375	533.259
2.161401	0.439375	465.254
-1.638599	0.639375	189.728
-1.238599	0.639375	352.719
-0.838599	0.639375	374.837
-0.438599	0.639375	369.453
-0.038599	0.639375	333.055
0.361401	0.639375	247.095
0.761401	0.639375	243.163
1.161401	0.639375	279.191
1.561401	0.639375	127.746
1.961401	0.639375	293.428
-1.838599	0.839375	20.1836
-1.438599	0.839375	252.167
-1.038599	0.839375	320.474
-0.638599	0.839375	342.819
-0.238599	0.839375	268.853
0.161401	0.839375	178.589
0.561401	0.839375	89.563
0.961401	0.839375	108.992
1.361401	0.839375	116.072
1.761401	0.839375	52.6928
2.161401	0.839375	103.805
-1.638599	1.039375	49.8797
-1.238599	1.039375	252.435
-0.838599	1.039375	271.391
-0.438599	1.039375	208.038
-0.038599	1.039375	96.1171
0.361401	1.039375	39.5387
0.761401	1.039375	19.6258
1.161401	1.039375	41.8662
1.561401	1.039375	23.8597
1.961401	1.039375	23.3499
-1.838599	1.239375	4.539176
-1.438599	1.239375	79.4623
-1.038599	1.239375	194.882
-0.638599	1.239375	125.69
-0.238599	1.239375	56.2681
0.161401	1.239375	14.3144
0.561401	1.239375	12.4921
0.961401	1.239375	17.0067
1.361401	1.239375	11.8375
1.761401	1.239375	11.8353
2.161401	1.239375	13.999
-1.638599	1.439375	10.0638
-1.238599	1.439375	66.3996
-0.838599	1.439375	64.3825
-0.438599	1.439375	27.1418
-0.038599	1.439375	11.5352
0.361401	1.439375	5.726817
0.761401	1.439375	10.9097
1.161401	1.439375	17.0453
1.561401	1.439375	14.7309
1.961401	1.439375	10.1349
-1.838599	1.639375	0.867049
-1.438599	1.639375	8.234948
-1.038599	1.639375	21.1528
-0.638599	1.639375	11.8245
-0.238599	1.639375	5.668180
0.161401	1.639375	7.142365
0.561401	1.639375	10.952
0.961401	1.639375	28.5024
1.361401	1.639375	33.3941
1.761401	1.639375	18.7103
2.161401	1.639375	9.357688
-1.638599	1.839375	3.471019
-1.238599	1.839375	5.584720
-0.838599	1.839375	7.557002
-0.438599	1.839375	5.455130
-0.038599	1.839375	9.728315
0.361401	1.839375	7.043858
0.761401	1.839375	29.6534
1.161401	1.839375	68.8165
1.561401	1.839375	39.6164
1.961401	1.839375	20.4682
-1.838599	2.039375	0.822149
-1.438599	2.039375	0.466654
-1.038599	2.039375	5.580694
-0.638599	2.039375	2.885986
-0.238599	2.039375	1.929682
0.161401	2.039375	4.855550
0.561401	2.039375	22.0638
0.961401	2.039375	122.488
1.361401	2.039375	187.008
1.761401	2.039375	53.6282
2.161401	2.039375	27.029
-1.638599	2.239375	-1e+10
-1.238599	2.239375	3.150865
-0.838599	2.239375	-2.766951
-0.438599	2.239375	2.551292
-0.038599	2.239375	4.668082
0.361401	2.239375	12.5856
0.761401	2.239375	103.844
1.161401	2.239375	402.781
1.561401	2.239375	251.03
1.961401	2.239375	68.6784
2.161401	2.239375	50.8007

File: G pos.txt
#XList		#YList		#IList
-1.838599	-0.760625	1588.51
-1.438599	-0.760625	1586.3
-1.038599	-0.760625	1586.6
-0.638599	-0.760625	1585.9
-0.238599	-0.760625	1584.36
0.161401	-0.760625	1584.35
0.561401	-0.760625	1586.15
0.961401	-0.760625	1588.94
1.361401	-0.760625	1589.1
1.761401	-0.760625	1588.12
2.161401	-0.760625	1586.56
-1.638599	-0.560625	1586.64
-1.238599	-0.560625	1586.11
-0.838599	-0.560625	1586.88
-0.438599	-0.560625	1586.71
-0.038599	-0.560625	1583.57
0.361401	-0.560625	1584.19
0.761401	-0.560625	1586.08
1.161401	-0.560625	1590.55
1.561401	-0.560625	1590.24
1.961401	-0.560625	1587.88
-1.838599	-0.360625	1586.87
-1.438599	-0.360625	1586.36
-1.038599	-0.360625	1586.23
-0.638599	-0.360625	1587.25
-0.238599	-0.360625	1584.98
0.161401	-0.360625	1584.31
0.561401	-0.360625	1583.87
0.961401	-0.360625	1585.83
1.361401	-0.360625	1589.51
1.761401	-0.360625	1590.64
2.161401	-0.360625	1586.45
-1.638599	-0.160625	1586.38
-1.238599	-0.160625	1587.28
-0.838599	-0.160625	1586.09
-0.438599	-0.160625	1587.15
-0.038599	-0.160625	1584.33
0.361401	-0.160625	1584.22
0.761401	-0.160625	1584.05
1.161401	-0.160625	1587.9
1.561401	-0.160625	1589.34
1.961401	-0.160625	1588.33
-1.838599	0.039375	1587.84
-1.438599	0.039375	1587.51
-1.038599	0.039375	1587.01
-0.638599	0.039375	1587.08
-0.238599	0.039375	1587.1
0.161401	0.039375	1584.67
0.561401	0.039375	1584.6
0.961401	0.039375	1586.07
1.361401	0.039375	1589.16
1.761401	0.039375	1586.47
2.161401	0.039375	1587.7
-1.638599	0.239375	1586.49
-1.238599	0.239375	1586.6
-0.838599	0.239375	1586.09
-0.438599	0.239375	1586.6
-0.038599	0.239375	1586.08
0.361401	0.239375	1586.13
0.761401	0.239375	1585.44
1.161401	0.239375	1586.87
1.561401	0.239375	1584.43
1.961401	0.239375	1584.99
-1.838599	0.439375	1586.8
-1.438599	0.439375	1586.24
-1.038599	0.439375	1586.37
-0.638599	0.439375	1585.8
-0.238599	0.439375	1586.42
0.161401	0.439375	1588.2
0.561401	0.439375	1587.81
0.961401	0.439375	1587.52
1.361401	0.439375	1588.59
1.761401	0.439375	1583.64
2.161401	0.439375	1586.48
-1.638599	0.639375	1586.41
-1.238599	0.639375	1586.09
-0.838599	0.639375	1586.52
-0.438599	0.639375	1587.58
-0.038599	0.639375	1588.25
0.361401	0.639375	1589.67
0.761401	0.639375	1587.82
1.161401	0.639375	1588.64
1.561401	0.639375	1587.91
1.961401	0.639375	1585.85
-1.838599	0.839375	1588.94
-1.438599	0.839375	1586.68
-1.038599	0.839375	1587.26
-0.638599	0.839375	1587.51
-0.238599	0.839375	1588.52
0.161401	0.839375	1588.64
0.561401	0.839375	1591.69
0.961401	0.839375	1589.27
1.361401	0.839375	1591.41
1.761401	0.839375	1588.83
2.161401	0.839375	1589.78
-1.638599	1.039375	1587.01
-1.238599	1.039375	1587.36
-0.838599	1.039375	1588.69
-0.438599	1.039375	1588.65
-0.038599	1.039375	1588.83
0.361401	1.039375	1587.51
0.761401	1.039375	1589.85
1.161401	1.039375	1594.49
1.561401	1.039375	1591.19
1.961401	1.039375	1587.02
-1.838599	1.239375	1591.71
-1.438599	1.239375	1587.73
-1.038599	1.239375	1588.48
-0.638599	1.239375	1588.87
-0.238599	1.239375	1590.53
0.161401	1.239375	1589.91
0.561401	1.239375	1593.29
0.961401	1.239375	1593
1.361401	1.239375	1587.41
1.761401	1.239375	1586.33
2.161401	1.239375	1590.21
-1.638599	1.439375	1590.6
-1.238599	1.439375	1588.38
-0.838599	1.439375	1587.36
-0.438599	1.439375	1589.89
-0.038599	1.439375	1590.52
0.361401	1.439375	1573.99
0.761401	1.439375	1589.78
1.161401	1.439375	1583.55
1.561401	1.439375	1593.08
1.961401	1.439375	1586.65
-1.838599	1.639375	1548.28
-1.438599	1.639375	1587.22
-1.038599	1.639375	1588.2
-0.638599	1.639375	1588.13
-0.238599	1.639375	1600.8
0.161401	1.639375	1597.1
0.561401	1.639375	1590.02
0.961401	1.639375	1592.57
1.361401	1.639375	1586.87
1.761401	1.639375	1593.51
2.161401	1.639375	1589.97
-1.638599	1.839375	1584.16
-1.238599	1.839375	1590.82
-0.838599	1.839375	1585.72
-0.438599	1.839375	1579.07
-0.038599	1.839375	1601.1
0.361401	1.839375	1595.41
0.761401	1.839375	1590.79
1.161401	1.839375	1585.42
1.561401	1.839375	1583.84
1.961401	1.839375	1584.77
-1.838599	2.039375	1566.89
-1.438599	2.039375	1593.17
-1.038599	2.039375	1592.44
-0.638599	2.039375	1596.67
-0.238599	2.039375	1566.92
0.161401	2.039375	1597.76
0.561401	2.039375	1593.69
0.961401	2.039375	1587.43
1.361401	2.039375	1588.1
1.761401	2.039375	1587.81
2.161401	2.039375	1586.05
-1.638599	2.239375	1e+10
-1.238599	2.239375	1662.76
-0.838599	2.239375	1587.28
-0.438599	2.239375	1609.5
-0.038599	2.239375	1595.32
0.361401	2.239375	1585.48
0.761401	2.239375	1589.61
1.161401	2.239375	1586.83
1.561401	2.239375	1588.28
1.961401	2.239375	1585.75
2.161401	2.239375	1586.7