Folder: graphene-production/data/derived_data/raman/20171207_GrNH2_from_20171130/20171207_GrNH2_map_1

File: 2D FWHM.txt
#XList		#YList		#IList
-1.838599	-0.760625	89.6648
-1.438599	-0.760625	86.9794
-1.038599	-0.760625	85.7591
-0.638599	-0.760625	82.8019
-0.238599	-0.760625	77.4262
0.161401	-0.760625	83.9176
0.561401	-0.760625	94.3524
0.961401	-0.760625	105.619
1.361401	-0.760625	103.97
1.761401	-0.760625	98.3265
2.161401	-0.760625	104.888
-1.638599	-0.560625	76.7108
-1.238599	-0.560625	76.5285
-0.838599	-0.560625	82.215
-0.438599	-0.560625	83.0899
-0.038599	-0.560625	72.4454
0.361401	-0.560625	80.6145
0.761401	-0.560625	90.0312
1.161401	-0.560625	122.202
1.561401	-0.560625	112.397
1.961401	-0.560625	84.6912
-1.838599	-0.360625	80.5164
-1.438599	-0.360625	80.6514
-1.038599	-0.360625	83.088
-0.638599	-0.360625	82.6381
-0.238599	-0.360625	80.6229
0.161401	-0.360625	77.9872
0.561401	-0.360625	78.9639
0.961401	-0.360625	90.2499
1.361401	-0.360625	121.983
1.761401	-0.360625	84.2883
2.161401	-0.360625	87.2049
-1.638599	-0.160625	82.285
-1.238599	-0.160625	82.4429
-0.838599	-0.160625	84.0468
-0.438599	-0.160625	86.7113
-0.038599	-0.160625	77.2257
0.361401	-0.160625	80.3082
0.761401	-0.160625	80.4146
1.161401	-0.160625	98.9209
1.561401	-0.160625	96.5038
1.961401	-0.160625	103.737
-1.838599	0.039375	90.5113
-1.438599	0.039375	82.1997
-1.038599	0.039375	82.5533
-0.638599	0.039375	80.4455
-0.238599	0.039375	85.2755
0.161401	0.039375	74.5225
0.561401	0.039375	77.4753
0.961401	0.039375	81.4743
1.361401	0.039375	122.481
1.761401	0.039375	88.9771
2.161401	0.039375	85.8096
-1.638599	0.239375	75.9816
-1.238599	0.239375	77.4005
-0.838599	0.239375	80.5615
-0.438599	0.239375	80.5144
-0.038599	0.239375	89.637
0.361401	0.239375	76.9765
0.761401	0.239375	89.7046
1.161401	0.239375	102.032
1.561401	0.239375	92.846
1.961401	0.239375	93.9352
-1.838599	0.439375	86.4363
-1.438599	0.439375	73.9816
-1.038599	0.439375	78.1277
-0.638599	0.439375	79.1946
-0.238599	0.439375	85.2969
0.161401	0.439375	106.582
0.561401	0.439375	98.867
0.961401	0.439375	90.0497
1.361401	0.439375	111.688
1.761401	0.439375	87.2524
2.161401	0.439375	102.312
-1.638599	0.639375	78.8509
-1.238599	0.639375	79.6187
-0.838599	0.639375	78.3789
-0.438599	0.639375	84.8197
-0.038599	0.639375	103.689
0.361401	0.639375	107.92
0.761401	0.639375	96.5517
1.161401	0.639375	122.653
1.561401	0.639375	92.2787
1.961401	0.639375	92.6431
-1.838599	0.839375	81.2252
-1.438599	0.839375	72.992
-1.038599	0.839375	80.4021
-0.638599	0.839375	87.7649
-0.238599	0.839375	92.2745
0.161401	0.839375	99.7223
0.561401	0.839375	95.0416
0.961401	0.839375	106.473
1.361401	0.839375	104.132
1.761401	0.839375	104.223
2.161401	0.839375	94.1569
-1.638599	1.039375	61.641
-1.238599	1.039375	77.8907
-0.838599	1.039375	92.424
-0.438599	1.039375	86.7936
-0.038599	1.039375	109.251
0.361401	1.039375	70.3596
0.761401	1.039375	111.568
1.161401	1.039375	118.516
1.561401	1.039375	311.607
1.961401	1.039375	102.639
-1.838599	1.239375	55.4638
-1.438599	1.239375	69.263
-1.038599	1.239375	85.6585
-0.638599	1.239375	83.7685
-0.238599	1.239375	93.8785
0.161401	1.239375	171.124
0.561401	1.239375	77.0461
0.961401	1.239375	71.57
1.361401	1.239375	197.184
1.761401	1.239375	54.9008
2.161401	1.239375	271.31
-1.638599	1.439375	93.6435
-1.238599	1.439375	70.2956
-0.838599	1.439375	72.3324
-0.438599	1.439375	144.726
-0.038599	1.439375	1.308779
0.361401	1.439375	14.1244
0.761401	1.439375	24.3562
1.161401	1.439375	302.875
1.561401	1.439375	257.319
1.961401	1.439375	125.191
-1.838599	1.639375	25.7974
-1.438599	1.639375	164.573
-1.038599	1.639375	79.675
-0.638599	1.639375	123.861
-0.238599	1.639375	374.578
0.161401	1.639375	2595.04
0.561401	1.639375	153.993
0.961401	1.639375	134.039
1.361401	1.639375	113.224
1.761401	1.639375	53.2024
2.161401	1.639375	116.33
-1.638599	1.839375	151.852
-1.238599	1.839375	131.934
-0.838599	1.839375	360.402
-0.438599	1.839375	526.408
-0.038599	1.839375	57.9466
0.361401	1.839375	38.6298
0.761401	1.839375	94.7378
1.161401	1.839375	125.968
1.561401	1.839375	98.5428
1.961401	1.839375	137.802
-1.838599	2.039375	35.2017
-1.438599	2.039375	2.446048
-1.038599	2.039375	16.945
-0.638599	2.039375	454.638
-0.238599	2.039375	382.238
0.161401	2.039375	7.891399
0.561401	2.039375	45.9363
0.961401	2.039375	103.136
1.361401	2.039375	111.609
1.761401	2.039375	98.6357
2.161401	2.039375	70.6117
-1.638599	2.239375	1322.13
-1.238599	2.239375	1604.86
-0.838599	2.239375	88.697
-0.438599	2.239375	1330.42
-0.038599	2.239375	203.668
0.361401	2.239375	180.02
0.761401	2.239375	113.965
1.161401	2.239375	117.13
1.561401	2.239375	131.846
1.961401	2.239375	87.311
2.161401	2.239375	74.1059

File: 2D int.txt
#XList		#YList		#IList
-1.838599	-0.760625	71.3053
-1.438599	-0.760625	130.44
-1.038599	-0.760625	124.485
-0.638599	-0.760625	138.447
-0.238599	-0.760625	176.354
0.161401	-0.760625	178.604
0.561401	-0.760625	173.936
0.961401	-0.760625	90.2731
1.361401	-0.760625	80.8108
1.761401	-0.760625	34.0492
2.161401	-0.760625	55.4976
-1.638599	-0.560625	139.193
-1.238599	-0.560625	147.647
-0.838599	-0.560625	123.5
-0.438599	-0.560625	128.942
-0.038599	-0.560625	182.68
0.361401	-0.560625	201.402
0.761401	-0.560625	157.377
1.161401	-0.560625	71.7634
1.561401	-0.560625	51.8712
1.961401	-0.560625	23.6544
-1.838599	-0.360625	117.522
-1.438599	-0.360625	145.498
-1.038599	-0.360625	144.348
-0.638599	-0.360625	115.143
-0.238599	-0.360625	152.096
0.161401	-0.360625	189.799
0.561401	-0.360625	198.071
0.961401	-0.360625	129.18
1.361401	-0.360625	51.8218
1.761401	-0.360625	20.639
2.161401	-0.360625	25.5636
-1.638599	-0.160625	152.184
-1.238599	-0.160625	129.294
-0.838599	-0.160625	125.467
-0.438599	-0.160625	118.43
-0.038599	-0.160625	172.925
0.361401	-0.160625	200.608
0.761401	-0.160625	177.684
1.161401	-0.160625	79.29
1.561401	-0.160625	32.6387
1.961401	-0.160625	20.3494
-1.838599	0.039375	55.3708
-1.438599	0.039375	109.198
-1.038599	0.039375	111.368
-0.638599	0.039375	120.869
-0.238599	0.039375	123.163
0.161401	0.039375	176.349
0.561401	0.039375	180.962
0.961401	0.039375	134.83
1.361401	0.039375	51.9411
1.761401	0.039375	81.1688
2.161401	0.039375	36.632
-1.638599	0.239375	98.3975
-1.238599	0.239375	121.987
-0.838599	0.239375	142.777
-0.438599	0.239375	125.697
-0.038599	0.239375	121.817
0.361401	0.239375	137.513
0.761401	0.239375	142.377
1.161401	0.239375	86.4794
1.561401	0.239375	103.224
1.961401	0.239375	132.592
-1.838599	0.439375	27.083
-1.438599	0.439375	124.919
-1.038599	0.439375	132.011
-0.638599	0.439375	148.291
-0.238599	0.439375	117.174
0.161401	0.439375	91.5662
0.561401	0.439375	97.6953
0.961401	0.439375	105.573
1.361401	0.439375	55.0116
1.761401	0.439375	138.369
2.161401	0.439375	110.457
-1.638599	0.639375	63.7516
-1.238599	0.639375	121.094
-0.838599	0.639375	122.674
-0.438599	0.639375	108.703
-0.038599	0.639375	82.1295
0.361401	0.639375	55.2416
0.761401	0.639375	66.9204
1.161401	0.639375	61.5717
1.561401	0.639375	28.5108
1.961401	0.639375	69.6102
-1.838599	0.839375	6.915318
-1.438599	0.839375	91.0507
-1.038599	0.839375	104.72
-0.638599	0.839375	101.536
-0.238599	0.839375	70.3833
0.161401	0.839375	42.8333
0.561401	0.839375	18.379
0.961401	0.839375	25.1383
1.361401	0.839375	21.2631
1.761401	0.839375	11.2487
2.161401	0.839375	22.2101
-1.638599	1.039375	19.002
-1.238599	1.039375	80.0658
-0.838599	1.039375	75.7569
-0.438599	1.039375	60.1703
-0.038599	1.039375	21.6065
0.361401	1.039375	10.9133
0.761401	1.039375	4.216054
1.161401	1.039375	8.171942
1.561401	1.039375	4.108701
1.961401	1.039375	5.502538
-1.838599	1.239375	2.225930
-1.438599	1.239375	27.9853
-1.038599	1.239375	62.5312
-0.638599	1.239375	36.6633
-0.238599	1.239375	13.6694
0.161401	1.239375	4.296094
0.561401	1.239375	2.891072
0.961401	1.239375	4.258993
1.361401	1.239375	4.028014
1.761401	1.239375	4.936331
2.161401	1.239375	2.946846
-1.638599	1.439375	3.689956
-1.238599	1.439375	20.5377
-0.838599	1.439375	21.7729
-0.438599	1.439375	6.310208
-0.038599	1.439375	4.832999
0.361401	1.439375	4.759826
0.761401	1.439375	4.524408
1.161401	1.439375	3.192758
1.561401	1.439375	3.910326
1.961401	1.439375	3.517983
-1.838599	1.639375	1.890012
-1.438599	1.639375	2.405735
-1.038599	1.639375	8.283228
-0.638599	1.639375	4.503693
-0.238599	1.639375	2.203336
0.161401	1.639375	0.551889
0.561401	1.639375	1.422390
0.961401	1.639375	4.184184
1.361401	1.639375	7.059642
1.761401	1.639375	6.617525
2.161401	1.639375	3.551792
-1.638599	1.839375	3.122352
-1.238599	1.839375	1.634702
-0.838599	1.839375	0.833151
-0.438599	1.839375	1.305759
-0.038599	1.839375	1.548262
0.361401	1.839375	1.288913
0.761401	1.839375	7.834391
1.161401	1.839375	14.6156
1.561401	1.839375	10.9693
1.961401	1.839375	6.235380
-1.838599	2.039375	1.661688
-1.438599	2.039375	12.7896
-1.038599	2.039375	2.849475
-0.638599	2.039375	2.045573
-0.238599	2.039375	2.039701
0.161401	2.039375	-1.523637
0.561401	2.039375	6.611396
0.961401	2.039375	28.7241
1.361401	2.039375	38.515
1.761401	2.039375	14.3505
2.161401	2.039375	11.1142
-1.638599	2.239375	1.138330
-1.238599	2.239375	1.540863
-0.838599	2.239375	1.214815
-0.438599	2.239375	1.313256
-0.038599	2.239375	1.242316
0.361401	2.239375	4.437019
0.761401	2.239375	22.759
1.161401	2.239375	91.2131
1.561401	2.239375	54.6853
1.961401	2.239375	20.965
2.161401	2.239375	18.3014

File: 2D pos.txt
#XList		#YList		#IList
-1.838599	-0.760625	2700.56
-1.438599	-0.760625	2703.03
-1.038599	-0.760625	2703.51
-0.638599	-0.760625	2705.77
-0.238599	-0.760625	2708.95
0.161401	-0.760625	2705.55
0.561401	-0.760625	2701.46
0.961401	-0.760625	2697.44
1.361401	-0.760625	2695.02
1.761401	-0.760625	2698.6
2.161401	-0.760625	2703.14
-1.638599	-0.560625	2701.59
-1.238599	-0.560625	2703.47
-0.838599	-0.560625	2704.57
-0.438599	-0.560625	2704.15
-0.038599	-0.560625	2708.38
0.361401	-0.560625	2705.67
0.761401	-0.560625	2703.51
1.161401	-0.560625	2693.39
1.561401	-0.560625	2692.74
1.961401	-0.560625	2698.23
-1.838599	-0.360625	2698.73
-1.438599	-0.360625	2701.52
-1.038599	-0.360625	2703.42
-0.638599	-0.360625	2703.33
-0.238599	-0.360625	2705.76
0.161401	-0.360625	2708.91
0.561401	-0.360625	2705.2
0.961401	-0.360625	2702.41
1.361401	-0.360625	2693.3
1.761401	-0.360625	2702.44
2.161401	-0.360625	2699.39
-1.638599	-0.160625	2699.1
-1.238599	-0.160625	2702.28
-0.838599	-0.160625	2702.37
-0.438599	-0.160625	2703.07
-0.038599	-0.160625	2706.37
0.361401	-0.160625	2705.58
0.761401	-0.160625	2706.25
1.161401	-0.160625	2702.81
1.561401	-0.160625	2703.38
1.961401	-0.160625	2699.92
-1.838599	0.039375	2700.94
-1.438599	0.039375	2702.28
-1.038599	0.039375	2702.8
-0.638599	0.039375	2703.39
-0.238599	0.039375	2701.62
0.161401	0.039375	2704.71
0.561401	0.039375	2704.88
0.961401	0.039375	2705.09
1.361401	0.039375	2699.71
1.761401	0.039375	2700.07
2.161401	0.039375	2701.44
-1.638599	0.239375	2702.61
-1.238599	0.239375	2704.97
-0.838599	0.239375	2703.5
-0.438599	0.239375	2702.82
-0.038599	0.239375	2703
0.361401	0.239375	2703.16
0.761401	0.239375	2703.41
1.161401	0.239375	2700.17
1.561401	0.239375	2697.89
1.961401	0.239375	2700.31
-1.838599	0.439375	2703.9
-1.438599	0.439375	2704.49
-1.038599	0.439375	2704.21
-0.638599	0.439375	2702.33
-0.238599	0.439375	2702.86
0.161401	0.439375	2699.11
0.561401	0.439375	2700.86
0.961401	0.439375	2700.4
1.361401	0.439375	2699.05
1.761401	0.439375	2699.36
2.161401	0.439375	2698.11
-1.638599	0.639375	2704.63
-1.238599	0.639375	2705.73
-0.838599	0.639375	2704.59
-0.438599	0.639375	2701.44
-0.038599	0.639375	2698.42
0.361401	0.639375	2695.55
0.761401	0.639375	2702.36
1.161401	0.639375	2698.31
1.561401	0.639375	2700.58
1.961401	0.639375	2701.51
-1.838599	0.839375	2696.86
-1.438599	0.839375	2704.15
-1.038599	0.839375	2703.25
-0.638599	0.839375	2700.07
-0.238599	0.839375	2700.46
0.161401	0.839375	2697.66
0.561401	0.839375	2698.31
0.961401	0.839375	2698.49
1.361401	0.839375	2697.98
1.761401	0.839375	2701.88
2.161401	0.839375	2699.44
-1.638599	1.039375	2705.18
-1.238599	1.039375	2697.6
-0.838599	1.039375	2699.81
-0.438599	1.039375	2699.56
-0.038599	1.039375	2702.64
0.361401	1.039375	2711.47
0.761401	1.039375	2709.84
1.161401	1.039375	2710.32
1.561401	1.039375	2689.83
1.961401	1.039375	2690.59
-1.838599	1.239375	2713.23
-1.438599	1.239375	2702.38
-1.038599	1.239375	2696.96
-0.638599	1.239375	2697.53
-0.238599	1.239375	2704.25
0.161401	1.239375	2696.16
0.561401	1.239375	2686.89
0.961401	1.239375	2705.8
1.361401	1.239375	2699.32
1.761401	1.239375	2693.87
2.161401	1.239375	2669.27
-1.638599	1.439375	2698.87
-1.238599	1.439375	2697.67
-0.838599	1.439375	2698.64
-0.438599	1.439375	2695.67
-0.038599	1.439375	2578.5
0.361401	1.439375	2689.12
0.761401	1.439375	2704.16
1.161401	1.439375	2723.14
1.561401	1.439375	2689.72
1.961401	1.439375	2701.23
-1.838599	1.639375	2694.66
-1.438599	1.639375	2676.13
-1.038599	1.639375	2687.7
-0.638599	1.639375	2703.12
-0.238599	1.639375	2640.75
0.161401	1.639375	2227.92
0.561401	1.639375	2731.18
0.961401	1.639375	2690.36
1.361401	1.639375	2708.7
1.761401	1.639375	2698.07
2.161401	1.639375	2723.4
-1.638599	1.839375	2705.24
-1.238599	1.839375	2691.93
-0.838599	1.839375	2647.06
-0.438599	1.839375	2680.98
-0.038599	1.839375	2701.06
0.361401	1.839375	2687.1
0.761401	1.839375	2684.96
1.161401	1.839375	2697.89
1.561401	1.839375	2706.4
1.961401	1.839375	2707.15
-1.838599	2.039375	2648.93
-1.438599	2.039375	2727.77
-1.038599	2.039375	2702.16
-0.638599	2.039375	2691.84
-0.238599	2.039375	2706.45
0.161401	2.039375	3339.62
0.561401	2.039375	2698.64
0.961401	2.039375	2703.57
1.361401	2.039375	2698.63
1.761401	2.039375	2705.95
2.161401	2.039375	2712.72
-1.638599	2.239375	2385.93
-1.238599	2.239375	2637.05
-0.838599	2.239375	2745.88
-0.438599	2.239375	2727.3
-0.038599	2.239375	2704.05
0.361401	2.239375	2694.11
0.761401	2.239375	2705.62
1.161401	2.239375	2697.07
1.561401	2.239375	2702.14
1.961401	2.239375	2715.77
2.161401	2.239375	2705.24

File: D FWHM.txt
#XList		#YList		#IList
-1.838599	-0.760625	63.3385
-1.438599	-0.760625	60.1226
-1.038599	-0.760625	59.6746
-0.638599	-0.760625	61.8449
-0.238599	-0.760625	64.5133
0.161401	-0.760625	65.2055
0.561401	-0.760625	69.1551
0.961401	-0.760625	64.6334
1.361401	-0.760625	61.5935
1.761401	-0.760625	63.2864
2.161401	-0.760625	69.7973
-1.638599	-0.560625	59.364
-1.238599	-0.560625	58.0545
-0.838599	-0.560625	60.1592
-0.438599	-0.560625	61.1051
-0.038599	-0.560625	63.0941
0.361401	-0.560625	64.6163
0.761401	-0.560625	63.1122
1.161401	-0.560625	65.2456
1.561401	-0.560625	63.2294
1.961401	-0.560625	62.9686
-1.838599	-0.360625	58.4848
-1.438599	-0.360625	54.7329
-1.038599	-0.360625	58.8239
-0.638599	-0.360625	59.2338
-0.238599	-0.360625	58.385
0.161401	-0.360625	61.0517
0.561401	-0.360625	63.3677
0.961401	-0.360625	64.5565
1.361401	-0.360625	65.1533
1.761401	-0.360625	65.3675
2.161401	-0.360625	59.9523
-1.638599	-0.160625	56.7518
-1.238599	-0.160625	57.4132
-0.838599	-0.160625	62.018
-0.438599	-0.160625	57.721
-0.038599	-0.160625	58.378
0.361401	-0.160625	60.4181
0.761401	-0.160625	66.1104
1.161401	-0.160625	67.7635
1.561401	-0.160625	67.9192
1.961401	-0.160625	73.6982
-1.838599	0.039375	58.099
-1.438599	0.039375	56.2846
-1.038599	0.039375	59.0565
-0.638599	0.039375	61.498
-0.238599	0.039375	60.4786
0.161401	0.039375	57.5088
0.561401	0.039375	63.0933
0.961401	0.039375	65.735
1.361401	0.039375	69.3241
1.761401	0.039375	62.6277
2.161401	0.039375	67.2223
-1.638599	0.239375	57.1808
-1.238599	0.239375	57.9998
-0.838599	0.239375	58.8277
-0.438599	0.239375	60.4741
-0.038599	0.239375	60.3724
0.361401	0.239375	62.6981
0.761401	0.239375	66.2484
1.161401	0.239375	67.6426
1.561401	0.239375	62.9813
1.961401	0.239375	63.9716
-1.838599	0.439375	54.1986
-1.438599	0.439375	56.3962
-1.038599	0.439375	58.0362
-0.638599	0.439375	59.3899
-0.238599	0.439375	61.7944
0.161401	0.439375	68.079
0.561401	0.439375	65.81
0.961401	0.439375	65.4447
1.361401	0.439375	67.5209
1.761401	0.439375	62.4568
2.161401	0.439375	63.9093
-1.638599	0.639375	57.1459
-1.238599	0.639375	58.3715
-0.838599	0.639375	59.2836
-0.438599	0.639375	60.304
-0.038599	0.639375	63.1578
0.361401	0.639375	68.6
0.761401	0.639375	63.5721
1.161401	0.639375	67.2336
1.561401	0.639375	66.2925
1.961401	0.639375	64.8201
-1.838599	0.839375	56.9479
-1.438599	0.839375	57.702
-1.038599	0.839375	58.8576
-0.638599	0.839375	58.5676
-0.238599	0.839375	60.6115
0.161401	0.839375	61.1253
0.561401	0.839375	70.4917
0.961401	0.839375	63.2987
1.361401	0.839375	67.3449
1.761401	0.839375	64.847
2.161401	0.839375	63.1489
-1.638599	1.039375	52.3949
-1.238599	1.039375	55.7638
-0.838599	1.039375	57.9224
-0.438599	1.039375	57.2291
-0.038599	1.039375	61.0714
0.361401	1.039375	58.9281
0.761401	1.039375	58.6646
1.161401	1.039375	60.3959
1.561401	1.039375	66.6845
1.961401	1.039375	59.0286
-1.838599	1.239375	63.6631
-1.438599	1.239375	53.3277
-1.038599	1.239375	54.1327
-0.638599	1.239375	56.6636
-0.238599	1.239375	60.6385
0.161401	1.239375	60.3386
0.561401	1.239375	63.8445
0.961401	1.239375	58.386
1.361401	1.239375	59.929
1.761401	1.239375	58.28
2.161401	1.239375	73.4063
-1.638599	1.439375	65.6186
-1.238599	1.439375	55.608
-0.838599	1.439375	46.0357
-0.438599	1.439375	52.7732
-0.038599	1.439375	53.2551
0.361401	1.439375	76.0434
0.761401	1.439375	60.355
1.161401	1.439375	82.2474
1.561401	1.439375	57.4213
1.961401	1.439375	51.8932
-1.838599	1.639375	38.5139
-1.438599	1.639375	66.9319
-1.038599	1.639375	52.6776
-0.638599	1.639375	65.9943
-0.238599	1.639375	89.7745
0.161401	1.639375	63.5526
0.561401	1.639375	67.2837
0.961401	1.639375	74.1205
1.361401	1.639375	93.7952
1.761401	1.639375	53.5124
2.161401	1.639375	85.8367
-1.638599	1.839375	133.924
-1.238599	1.839375	51.5146
-0.838599	1.839375	79.6703
-0.438599	1.839375	100.794
-0.038599	1.839375	74.105
0.361401	1.839375	70.4176
0.761401	1.839375	76.7504
1.161401	1.839375	75.9935
1.561401	1.839375	77.4971
1.961401	1.839375	88.697
-1.838599	2.039375	2.152935
-1.438599	2.039375	1561.8
-1.038599	2.039375	398.655
-0.638599	2.039375	94.6392
-0.238599	2.039375	34.8022
0.161401	2.039375	74.0524
0.561401	2.039375	80.7501
0.961401	2.039375	76.189
1.361401	2.039375	71.8677
1.761401	2.039375	74.4688
2.161401	2.039375	57.6283
-1.638599	2.239375	94.296
-1.238599	2.239375	2.022389
-0.838599	2.239375	2595.04
-0.438599	2.239375	104.8
-0.038599	2.239375	61.1098
0.361401	2.239375	65.746
0.761401	2.239375	75.1461
1.161401	2.239375	66.6191
1.561401	2.239375	69.2662
1.961401	2.239375	68.3733
2.161401	2.239375	66.5743

File: D int.txt
#XList		#YList		#IList
-1.838599	-0.760625	310.665
-1.438599	-0.760625	403.037
-1.038599	-0.760625	440.887
-0.638599	-0.760625	406.713
-0.238599	-0.760625	348.609
0.161401	-0.760625	403.993
0.561401	-0.760625	631.574
0.961401	-0.760625	461.827
1.361401	-0.760625	482.652
1.761401	-0.760625	195.254
2.161401	-0.760625	198.511
-1.638599	-0.560625	454.232
-1.238599	-0.560625	439.469
-0.838599	-0.560625	425.266
-0.438599	-0.560625	404.732
-0.038599	-0.560625	309.909
0.361401	-0.560625	466.512
0.761401	-0.560625	484.865
1.161401	-0.560625	474.983
1.561401	-0.560625	370.637
1.961401	-0.560625	114.46
-1.838599	-0.360625	409.122
-1.438599	-0.360625	474.94
-1.038599	-0.360625	438.348
-0.638599	-0.360625	414.379
-0.238599	-0.360625	351.71
0.161401	-0.360625	354.148
0.561401	-0.360625	459.203
0.961401	-0.360625	434.863
1.361401	-0.360625	376.496
1.761401	-0.360625	117.482
2.161401	-0.360625	101.515
-1.638599	-0.160625	510.819
-1.238599	-0.160625	438.026
-0.838599	-0.160625	410.197
-0.438599	-0.160625	412.354
-0.038599	-0.160625	347.156
0.361401	-0.160625	439.514
0.761401	-0.160625	372.817
1.161401	-0.160625	378.519
1.561401	-0.160625	161.178
1.961401	-0.160625	94.8727
-1.838599	0.039375	203.027
-1.438599	0.039375	406.605
-1.038599	0.039375	416.992
-0.638599	0.039375	403.662
-0.238599	0.039375	409.315
0.161401	0.039375	378.605
0.561401	0.039375	403.953
0.961401	0.039375	405.538
1.361401	0.039375	264.7
1.761401	0.039375	321.916
2.161401	0.039375	181.065
-1.638599	0.239375	311.271
-1.238599	0.239375	366.217
-0.838599	0.239375	393.736
-0.438599	0.239375	407.15
-0.038599	0.239375	401.271
0.361401	0.239375	412.401
0.761401	0.239375	382.625
1.161401	0.239375	399.026
1.561401	0.239375	427.874
1.961401	0.239375	557.422
-1.838599	0.439375	88.3046
-1.438599	0.439375	343.679
-1.038599	0.439375	385.944
-0.638599	0.439375	381.224
-0.238599	0.439375	404.125
0.161401	0.439375	415.637
0.561401	0.439375	391.767
0.961401	0.439375	414.512
1.361401	0.439375	308.358
1.761401	0.439375	520.682
2.161401	0.439375	530.561
-1.638599	0.639375	202.633
-1.238599	0.639375	357.631
-0.838599	0.639375	376.644
-0.438599	0.639375	393.175
-0.038599	0.639375	410.23
0.361401	0.639375	309.828
0.761401	0.639375	276.657
1.161401	0.639375	346.813
1.561401	0.639375	142.426
1.961401	0.639375	295.464
-1.838599	0.839375	21.787
-1.438599	0.839375	252.2
-1.038599	0.839375	373.535
-0.638599	0.839375	380.386
-0.238599	0.839375	336.444
0.161401	0.839375	225.686
0.561401	0.839375	105.17
0.961401	0.839375	140.416
1.361401	0.839375	150.717
1.761401	0.839375	53.3863
2.161401	0.839375	124.132
-1.638599	1.039375	49.9801
-1.238599	1.039375	298.731
-0.838599	1.039375	357.465
-0.438599	1.039375	269.328
-0.038599	1.039375	124.1
0.361401	1.039375	46.5363
0.761401	1.039375	28.386
1.161401	1.039375	62.2279
1.561401	1.039375	28.5482
1.961401	1.039375	27.6144
-1.838599	1.239375	6.419864
-1.438599	1.239375	83.0589
-1.038599	1.239375	253.535
-0.638599	1.239375	177.292
-0.238599	1.239375	74.4963
0.161401	1.239375	19.407
0.561401	1.239375	13.5414
0.961401	1.239375	17.9825
1.361401	1.239375	19.0386
1.761401	1.239375	16.4675
2.161401	1.239375	14.3758
-1.638599	1.439375	9.670557
-1.238599	1.439375	78.9799
-0.838599	1.439375	90.2246
-0.438599	1.439375	38.2303
-0.038599	1.439375	15.3088
0.361401	1.439375	9.209164
0.761401	1.439375	11.807
1.161401	1.439375	17.1705
1.561401	1.439375	15.15
1.961401	1.439375	10.2869
-1.838599	1.639375	2.754668
-1.438599	1.639375	8.223801
-1.038599	1.639375	22.7781
-0.638599	1.639375	15.9085
-0.238599	1.639375	9.475890
0.161401	1.639375	4.439504
0.561401	1.639375	11.9045
0.961401	1.639375	30.0051
1.361401	1.639375	28.846
1.761401	1.639375	16.8237
2.161401	1.639375	7.642321
-1.638599	1.839375	0.737709
-1.238599	1.839375	5.922794
-0.838599	1.839375	5.967238
-0.438599	1.839375	4.951205
-0.038599	1.839375	4.314106
0.361401	1.839375	6.950298
0.761401	1.839375	32.6515
1.161401	1.839375	75.8293
1.561401	1.839375	43.2155
1.961401	1.839375	16.8792
-1.838599	2.039375	4.121476
-1.438599	2.039375	1.189037
-1.038599	2.039375	1.371294
-0.638599	2.039375	3.225796
-0.238599	2.039375	3.362829
0.161401	2.039375	6.654791
0.561401	2.039375	22.1222
0.961401	2.039375	136.966
1.361401	2.039375	207.147
1.761401	2.039375	50.0465
2.161401	2.039375	19.3155
-1.638599	2.239375	4.910320
-1.238599	2.239375	8.733432
-0.838599	2.239375	0.873561
-0.438599	2.239375	2.997218
-0.038599	2.239375	6.535269
0.361401	2.239375	15.0931
0.761401	2.239375	103.504
1.161401	2.239375	458.089
1.561401	2.239375	279.323
1.961401	2.239375	49.9691
2.161401	2.239375	36.0943