Folder: graphene-production/data/raw_data/ir/20170922_ATR-IR_Gr-NH2

File: Administrator 1001_148.csv
Created as New Dataset;Sample 1001 By Administrator Date fredag, september 22 2017
cm-1;%T
4000,00;85,57
3988,00;85,54
3976,00;85,49
3964,00;85,46
3952,00;85,32
3940,00;85,37
3928,00;85,22
3916,00;85,29
3904,00;84,32
3892,00;84,88
3880,00;84,96
3868,00;84,44
3856,00;83,69
3844,00;84,75
3832,00;84,78
3820,00;84,11
3808,00;84,61
3796,00;84,92
3784,00;85,03
3772,00;84,88
3760,00;84,66
3748,00;83,41
3736,00;83,52
3724,00;84,65
3712,00;84,05
3700,00;85,01
3688,00;84,21
3676,00;83,56
3664,00;85,39
3652,00;83,97
3640,00;85,13
3628,00;84,26
3616,00;84,34
3604,00;84,95
3592,00;84,72
3580,00;85,04
3568,00;84,21
3556,00;84,95
3544,00;84,80
3532,00;84,89
3520,00;84,88
3508,00;84,82
3496,00;84,91
3484,00;84,84
3472,00;84,90
3460,00;84,85
3448,00;84,74
3436,00;84,85
3424,00;84,78
3412,00;84,78
3400,00;84,72
3388,00;84,70
3376,00;84,68
3364,00;84,62
3352,00;84,62
3340,00;84,60
3328,00;84,56
3316,00;84,55
3304,00;84,53
3292,00;84,49
3280,00;84,47
3268,00;84,47
3256,00;84,43
3244,00;84,41
3232,00;84,40
3220,00;84,35
3208,00;84,35
3196,00;84,29
3184,00;84,27
3172,00;84,25
3160,00;84,20
3148,00;84,16
3136,00;84,13
3124,00;84,06
3112,00;84,05
3100,00;84,01
3088,00;84,02
3076,00;83,97
3064,00;83,91
3052,00;83,93
3040,00;83,89
3028,00;83,85
3016,00;83,86
3004,00;83,81
2992,00;83,73
2980,00;83,66
2968,00;83,63
2956,00;83,72
2944,00;83,68
2932,00;83,85
2920,00;84,00
2908,00;83,71
2896,00;83,59
2884,00;83,49
2872,00;83,44
2860,00;83,55
2848,00;83,60
2836,00;83,42
2824,00;83,36
2812,00;83,31
2800,00;83,29
2788,00;83,25
2776,00;83,22
2764,00;83,20
2752,00;83,18
2740,00;83,15
2728,00;83,14
2716,00;83,12
2704,00;83,09
2692,00;83,07
2680,00;83,05
2668,00;83,02
2656,00;82,90
2644,00;82,91
2632,00;82,94
2620,00;83,00
2608,00;83,04
2596,00;83,06
2584,00;83,08
2572,00;83,11
2560,00;83,11
2548,00;83,13
2536,00;83,12
2524,00;83,10
2512,00;83,13
2500,00;83,10
2488,00;83,07
2476,00;83,07
2464,00;83,03
2452,00;82,97
2440,00;82,99
2428,00;83,01
2416,00;83,01
2404,00;83,02
2392,00;82,98
2380,00;82,93
2368,00;82,93
2356,00;83,30
2344,00;82,48
2332,00;83,06
2320,00;82,84
2308,00;82,71
2296,00;82,53
2284,00;82,42
2272,00;82,56
2260,00;82,59
2248,00;82,68
2236,00;82,62
2224,00;82,63
2212,00;82,61
2200,00;82,54
2188,00;82,40
2176,00;82,66
2164,00;82,28
2152,00;83,26
2140,00;82,99
2128,00;82,93
2116,00;82,60
2104,00;82,53
2092,00;82,59
2080,00;82,35
2068,00;82,38
2056,00;82,29
2044,00;82,36
2032,00;82,43
2020,00;82,52
2008,00;82,63
1996,00;82,51
1984,00;82,19
1972,00;82,60
1960,00;82,66
1948,00;82,54
1936,00;82,46
1924,00;82,39
1912,00;82,27
1900,00;82,25
1888,00;82,14
1876,00;82,12
1864,00;82,08
1852,00;82,00
1840,00;81,99
1828,00;81,87
1816,00;81,90
1804,00;81,67
1792,00;81,61
1780,00;81,49
1768,00;81,46
1756,00;81,27
1744,00;81,08
1732,00;80,81
1720,00;80,81
1708,00;80,87
1696,00;81,02
1684,00;80,86
1672,00;80,87
1660,00;80,79
1648,00;80,67
1636,00;80,58
1624,00;80,47
1612,00;80,42
1600,00;80,53
1588,00;80,63
1576,00;80,42
1564,00;80,20
1552,00;80,02
1540,00;79,96
1528,00;79,86
1516,00;79,79
1504,00;79,76
1492,00;79,89
1480,00;79,75
1468,00;79,68
1456,00;79,52
1444,00;79,51
1432,00;79,42
1420,00;79,32
1408,00;79,17
1396,00;79,22
1384,00;79,11
1372,00;79,07
1360,00;79,03
1348,00;78,94
1336,00;78,90
1324,00;78,84
1312,00;78,82
1300,00;78,75
1288,00;78,74
1276,00;78,73
1264,00;78,69
1252,00;78,55
1240,00;78,41
1228,00;78,28
1216,00;78,22
1204,00;78,15
1192,00;78,04
1180,00;77,92
1168,00;77,81
1156,00;77,69
1144,00;77,60
1132,00;77,48
1120,00;77,38
1108,00;77,28
1096,00;77,15
1084,00;77,04
1072,00;77,00
1060,00;76,94
1048,00;76,99
1036,00;76,96
1024,00;76,89
1012,00;76,88
1000,00;76,85
988,00;76,82
976,00;76,78
964,00;76,74
952,00;76,72
940,00;76,66
928,00;76,61
916,00;76,53
904,00;76,44
892,00;76,32
880,00;76,21
868,00;76,09
856,00;76,01
844,00;75,88
832,00;75,77
820,00;75,79
808,00;75,63
796,00;75,52
784,00;75,39
772,00;75,31
760,00;75,22
748,00;75,15
736,00;75,05
724,00;74,93
712,00;74,88
700,00;74,78
688,00;74,65
676,00;74,52
664,00;74,45
652,00;74,37
640,00;74,29
628,00;74,21
616,00;74,14
604,00;74,08
592,00;74,02
580,00;73,97
568,00;73,72
556,00;73,63
544,00;73,45
532,00;73,36
520,00;72,97
508,00;72,84
496,00;72,71
484,00;72,44
472,00;72,45
460,00;71,99
450,00;72,18

File: Administrator 1001_148_1.csv
Created as New Dataset;Sample 1001 By Administrator Date fredag, september 22 2017
cm-1;%T
4000,00;85,57
3988,00;85,58
3976,00;85,57
3964,00;85,58
3952,00;85,48
3940,00;85,57
3928,00;85,46
3916,00;85,57
3904,00;84,66
3892,00;85,26
3880,00;85,38
3868,00;84,91
3856,00;84,23
3844,00;85,30
3832,00;85,37
3820,00;84,76
3808,00;85,29
3796,00;85,63
3784,00;85,78
3772,00;85,67
3760,00;85,51
3748,00;84,37
3736,00;84,51
3724,00;85,63
3712,00;85,11
3700,00;86,05
3688,00;85,35
3676,00;84,79
3664,00;86,53
3652,00;85,25
3640,00;86,37
3628,00;85,62
3616,00;85,73
3604,00;86,33
3592,00;86,16
3580,00;86,50
3568,00;85,79
3556,00;86,50
3544,00;86,41
3532,00;86,53
3520,00;86,57
3508,00;86,56
3496,00;86,68
3484,00;86,66
3472,00;86,76
3460,00;86,75
3448,00;86,70
3436,00;86,84
3424,00;86,82
3412,00;86,86
3400,00;86,86
3388,00;86,88
3376,00;86,91
3364,00;86,90
3352,00;86,94
3340,00;86,97
3328,00;86,98
3316,00;87,01
3304,00;87,04
3292,00;87,05
3280,00;87,07
3268,00;87,12
3256,00;87,13
3244,00;87,16
3232,00;87,20
3220,00;87,20
3208,00;87,24
3196,00;87,24
3184,00;87,27
3172,00;87,30
3160,00;87,30
3148,00;87,31
3136,00;87,33
3124,00;87,32
3112,00;87,35
3100,00;87,37
3088,00;87,42
3076,00;87,43
3064,00;87,42
3052,00;87,48
3040,00;87,50
3028,00;87,52
3016,00;87,57
3004,00;87,58
2992,00;87,56
2980,00;87,56
2968,00;87,58
2956,00;87,70
2944,00;87,71
2932,00;87,88
2920,00;88,05
2908,00;87,87
2896,00;87,83
2884,00;87,80
2872,00;87,81
2860,00;87,94
2848,00;88,03
2836,00;87,94
2824,00;87,94
2812,00;87,96
2800,00;87,99
2788,00;88,01
2776,00;88,03
2764,00;88,07
2752,00;88,10
2740,00;88,13
2728,00;88,17
2716,00;88,20
2704,00;88,23
2692,00;88,26
2680,00;88,30
2668,00;88,33
2656,00;88,29
2644,00;88,35
2632,00;88,42
2620,00;88,51
2608,00;88,59
2596,00;88,65
2584,00;88,71
2572,00;88,79
2560,00;88,84
2548,00;88,90
2536,00;88,94
2524,00;88,98
2512,00;89,04
2500,00;89,07
2488,00;89,11
2476,00;89,15
2464,00;89,18
2452,00;89,19
2440,00;89,25
2428,00;89,31
2416,00;89,36
2404,00;89,42
2392,00;89,44
2380,00;89,46
2368,00;89,51
2356,00;89,80
2344,00;89,33
2332,00;89,75
2320,00;89,66
2308,00;89,63
2296,00;89,57
2284,00;89,55
2272,00;89,69
2260,00;89,76
2248,00;89,86
2236,00;89,88
2224,00;89,93
2212,00;89,97
2200,00;89,98
2188,00;89,95
2176,00;90,16
2164,00;89,99
2152,00;90,61
2140,00;90,50
2128,00;90,52
2116,00;90,38
2104,00;90,39
2092,00;90,48
2080,00;90,40
2068,00;90,47
2056,00;90,47
2044,00;90,56
2032,00;90,65
2020,00;90,76
2008,00;90,87
1996,00;90,85
1984,00;90,73
1972,00;91,01
1960,00;91,09
1948,00;91,08
1936,00;91,09
1924,00;91,10
1912,00;91,10
1900,00;91,14
1888,00;91,13
1876,00;91,17
1864,00;91,21
1852,00;91,22
1840,00;91,27
1828,00;91,27
1816,00;91,33
1804,00;91,27
1792,00;91,30
1780,00;91,29
1768,00;91,33
1756,00;91,30
1744,00;91,26
1732,00;91,19
1720,00;91,24
1708,00;91,33
1696,00;91,46
1684,00;91,45
1672,00;91,51
1660,00;91,53
1648,00;91,53
1636,00;91,55
1624,00;91,56
1612,00;91,59
1600,00;91,70
1588,00;91,81
1576,00;91,77
1564,00;91,73
1552,00;91,72
1540,00;91,75
1528,00;91,77
1516,00;91,80
1504,00;91,85
1492,00;91,97
1480,00;91,97
1468,00;92,00
1456,00;92,00
1444,00;92,05
1432,00;92,08
1420,00;92,11
1408,00;92,11
1396,00;92,19
1384,00;92,21
1372,00;92,26
1360,00;92,31
1348,00;92,34
1336,00;92,39
1324,00;92,43
1312,00;92,49
1300,00;92,53
1288,00;92,59
1276,00;92,65
1264,00;92,71
1252,00;92,72
1240,00;92,74
1228,00;92,76
1216,00;92,81
1204,00;92,85
1192,00;92,88
1180,00;92,91
1168,00;92,94
1156,00;92,96
1144,00;93,00
1132,00;93,03
1120,00;93,07
1108,00;93,11
1096,00;93,14
1084,00;93,18
1072,00;93,23
1060,00;93,29
1048,00;93,38
1036,00;93,44
1024,00;93,49
1012,00;93,57
1000,00;93,63
988,00;93,69
976,00;93,76
964,00;93,82
952,00;93,89
940,00;93,94
928,00;94,01
916,00;94,06
904,00;94,11
892,00;94,15
880,00;94,20
868,00;94,24
856,00;94,30
844,00;94,34
832,00;94,39
820,00;94,48
808,00;94,51
796,00;94,57
784,00;94,61
772,00;94,68
760,00;94,73
748,00;94,80
736,00;94,86
724,00;94,91
712,00;94,98
700,00;95,04
688,00;95,10
676,00;95,15
664,00;95,22
652,00;95,29
640,00;95,36
628,00;95,43
616,00;95,50
604,00;95,57
592,00;95,65
580,00;95,72
568,00;95,76
556,00;95,83
544,00;95,89
532,00;95,96
520,00;95,99
508,00;96,06
496,00;96,13
484,00;96,17
472,00;96,27
460,00;96,29
450,00;96,40