Folder: graphene-production/data/raw_data/ir/2017118_ATR-IR_AEBD

File: 20171128_AEBD.csv
Created as New Dataset;Sample 1471 By Administrator Date tirsdag, november 28 2017
cm-1;%T
4000,00;98,89
3988,00;98,87
3976,00;98,84
3964,00;98,81
3952,00;98,77
3940,00;98,76
3928,00;98,69
3916,00;98,70
3904,00;98,26
3892,00;98,56
3880,00;98,51
3868,00;98,22
3856,00;97,87
3844,00;98,51
3832,00;98,50
3820,00;98,13
3808,00;98,36
3796,00;98,53
3784,00;98,53
3772,00;98,34
3760,00;98,20
3748,00;97,52
3736,00;97,58
3724,00;98,01
3712,00;97,56
3700,00;97,70
3688,00;96,81
3676,00;95,64
3664,00;95,23
3652,00;93,04
3640,00;92,18
3628,00;90,55
3616,00;89,85
3604,00;89,66
3592,00;89,44
3580,00;89,66
3568,00;89,44
3556,00;90,03
3544,00;90,17
3532,00;90,30
3520,00;90,36
3508,00;90,28
3496,00;90,16
3484,00;89,96
3472,00;89,77
3460,00;89,54
3448,00;89,28
3436,00;89,12
3424,00;88,94
3412,00;88,81
3400,00;88,73
3388,00;88,70
3376,00;88,52
3364,00;88,50
3352,00;88,76
3340,00;88,88
3328,00;88,82
3316,00;88,38
3304,00;87,06
3292,00;84,18
3280,00;80,23
3268,00;78,37
3256,00;79,59
3244,00;81,17
3232,00;82,98
3220,00;83,90
3208,00;82,75
3196,00;84,15
3184,00;86,32
3172,00;86,90
3160,00;87,29
3148,00;89,07
3136,00;90,04
3124,00;90,01
3112,00;87,76
3100,00;90,39
3088,00;91,77
3076,00;92,14
3064,00;92,70
3052,00;92,93
3040,00;92,84
3028,00;93,35
3016,00;93,45
3004,00;93,29
2992,00;93,31
2980,00;93,50
2968,00;93,97
2956,00;94,16
2944,00;94,42
2932,00;94,79
2920,00;95,07
2908,00;94,92
2896,00;94,96
2884,00;95,04
2872,00;95,12
2860,00;95,30
2848,00;95,42
2836,00;95,29
2824,00;95,29
2812,00;95,38
2800,00;95,35
2788,00;95,37
2776,00;95,40
2764,00;95,43
2752,00;95,46
2740,00;95,52
2728,00;95,58
2716,00;95,66
2704,00;95,71
2692,00;95,73
2680,00;95,71
2668,00;95,54
2656,00;95,40
2644,00;95,42
2632,00;95,52
2620,00;95,73
2608,00;95,78
2596,00;95,86
2584,00;95,93
2572,00;96,02
2560,00;96,03
2548,00;96,07
2536,00;96,09
2524,00;96,23
2512,00;96,29
2500,00;96,28
2488,00;96,33
2476,00;96,34
2464,00;96,29
2452,00;96,18
2440,00;96,16
2428,00;96,24
2416,00;96,30
2404,00;96,34
2392,00;96,37
2380,00;96,14
2368,00;97,06
2356,00;97,38
2344,00;96,64
2332,00;96,91
2320,00;96,23
2308,00;95,66
2296,00;93,03
2284,00;77,76
2272,00;92,12
2260,00;94,50
2248,00;94,99
2236,00;95,32
2224,00;95,49
2212,00;95,42
2200,00;95,52
2188,00;95,49
2176,00;95,69
2164,00;95,20
2152,00;96,39
2140,00;96,10
2128,00;96,05
2116,00;95,70
2104,00;95,59
2092,00;95,75
2080,00;95,58
2068,00;95,73
2056,00;95,70
2044,00;95,84
2032,00;96,30
2020,00;96,51
2008,00;96,50
1996,00;96,36
1984,00;96,11
1972,00;96,71
1960,00;96,47
1948,00;95,99
1936,00;95,72
1924,00;95,70
1912,00;95,52
1900,00;95,27
1888,00;95,17
1876,00;95,05
1864,00;94,89
1852,00;94,74
1840,00;94,65
1828,00;94,44
1816,00;94,30
1804,00;93,82
1792,00;93,93
1780,00;93,96
1768,00;93,96
1756,00;93,83
1744,00;93,95
1732,00;93,86
1720,00;93,69
1708,00;93,51
1696,00;93,37
1684,00;92,67
1672,00;91,84
1660,00;90,73
1648,00;89,50
1636,00;88,11
1624,00;85,57
1612,00;87,32
1600,00;87,73
1588,00;69,97
1576,00;89,87
1564,00;92,82
1552,00;93,65
1540,00;93,90
1528,00;93,70
1516,00;91,20
1504,00;77,99
1492,00;79,99
1480,00;89,14
1468,00;89,82
1456,00;92,84
1444,00;93,33
1432,00;91,28
1420,00;93,16
1408,00;93,42
1396,00;92,62
1384,00;94,06
1372,00;94,17
1360,00;94,35
1348,00;94,14
1336,00;93,11
1324,00;91,80
1312,00;92,88
1300,00;92,08
1288,00;90,72
1276,00;93,22
1264,00;92,80
1252,00;94,26
1240,00;94,43
1228,00;94,36
1216,00;93,91
1204,00;93,47
1192,00;92,44
1180,00;92,38
1168,00;90,24
1156,00;86,13
1144,00;80,90
1132,00;74,85
1120,00;72,62
1108,00;66,74
1096,00;60,50
1084,00;53,31
1072,00;46,14
1060,00;42,14
1048,00;35,87
1036,00;29,62
1024,00;21,94
1012,00;19,12
1000,00;21,16
988,00;30,44
976,00;41,99
964,00;50,77
952,00;61,72
940,00;55,28
928,00;50,10
916,00;61,91
904,00;71,35
892,00;75,96
880,00;78,83
868,00;81,16
856,00;79,19
844,00;66,43
832,00;74,49
820,00;52,89
808,00;73,68
796,00;74,39
784,00;64,41
772,00;74,56
760,00;75,98
748,00;77,24
736,00;74,55
724,00;75,02
712,00;77,26
700,00;78,58
688,00;77,00
676,00;79,16
664,00;79,57
652,00;79,89
640,00;79,83
628,00;80,04
616,00;80,18
604,00;80,35
592,00;80,51
580,00;80,53
568,00;80,68
556,00;80,11
544,00;62,01
532,00;62,94
520,00;52,73
508,00;69,84
496,00;68,25
484,00;73,06
472,00;74,96
460,00;76,58
450,00;74,70