Folder: graphene-production/data/raw_data/electrochemistry/20170904_Gr-NH2_prod_for_Radisurf (part 4)

File: Run Unsaved.txt
Sept. 4, 2017   10:20:19
Cyclic Voltammetry
File: run unsaved
Data Source:  Experiment
Instrument Model:  CHI601D
Header:
Note:

Init E (V) = 0.5
High E (V) = 0.5
Low E (V) = -1
Init P/N = N
Scan Rate (V/s) = 0.1
Segment = 2
Sample Interval (V) = 0.001
Quiet Time (sec) = 2
Sensitivity (A/V) = 1e-6

Potential/V, Current/A

Segment 1:
0.500, 9.567e-7
0.495, 9.174e-7
0.490, 8.914e-7
0.485, 8.666e-7
0.480, 8.449e-7
0.475, 8.228e-7
0.470, 8.031e-7
0.465, 7.828e-7
0.460, 7.647e-7
0.455, 7.456e-7
0.450, 7.284e-7
0.445, 7.106e-7
0.440, 6.943e-7
0.435, 6.774e-7
0.430, 6.620e-7
0.425, 6.459e-7
0.420, 6.310e-7
0.415, 6.155e-7
0.410, 6.014e-7
0.405, 5.863e-7
0.400, 5.727e-7
0.395, 5.579e-7
0.390, 5.449e-7
0.385, 5.307e-7
0.380, 5.181e-7
0.375, 5.041e-7
0.370, 4.918e-7
0.365, 4.782e-7
0.360, 4.661e-7
0.355, 4.531e-7
0.350, 4.411e-7
0.345, 4.282e-7
0.340, 4.167e-7
0.335, 4.041e-7
0.330, 3.928e-7
0.325, 3.801e-7
0.320, 3.689e-7
0.315, 3.565e-7
0.310, 3.457e-7
0.305, 3.334e-7
0.300, 3.226e-7
0.295, 3.104e-7
0.290, 2.996e-7
0.285, 2.877e-7
0.280, 2.768e-7
0.275, 2.650e-7
0.270, 2.543e-7
0.265, 2.426e-7
0.260, 2.320e-7
0.255, 2.204e-7
0.250, 2.099e-7
0.245, 1.981e-7
0.240, 1.876e-7
0.235, 1.758e-7
0.230, 1.655e-7
0.225, 1.536e-7
0.220, 1.431e-7
0.215, 1.312e-7
0.210, 1.205e-7
0.205, 1.085e-7
0.200, 9.774e-8
0.195, 8.572e-8
0.190, 7.470e-8
0.185, 6.276e-8
0.180, 5.156e-8
0.175, 3.933e-8
0.170, 2.810e-8
0.165, 1.542e-8
0.160, 4.099e-9
0.155, -8.741e-9
0.150, -2.030e-8
0.145, -3.343e-8
0.140, -4.525e-8
0.135, -5.862e-8
0.130, -7.078e-8
0.125, -8.426e-8
0.120, -9.704e-8
0.115, -1.108e-7
0.110, -1.237e-7
0.105, -1.378e-7
0.100, -1.510e-7
0.095, -1.655e-7
0.090, -1.792e-7
0.085, -1.943e-7
0.080, -2.083e-7
0.075, -2.239e-7
0.070, -2.382e-7
0.065, -2.541e-7
0.060, -2.688e-7
0.055, -2.854e-7
0.050, -3.007e-7
0.045, -3.174e-7
0.040, -3.335e-7
0.035, -3.506e-7
0.030, -3.672e-7
0.025, -3.847e-7
0.020, -4.017e-7
0.015, -4.198e-7
0.010, -4.373e-7
0.005, -4.561e-7
0.000, -4.738e-7
-0.005, -4.932e-7
-0.010, -5.116e-7
-0.015, -5.317e-7
-0.020, -5.504e-7
-0.025, -5.708e-7
-0.030, -5.903e-7
-0.035, -6.113e-7
-0.040, -6.316e-7
-0.045, -6.529e-7
-0.050, -6.738e-7
-0.055, -6.956e-7
-0.060, -7.171e-7
-0.065, -7.396e-7
-0.070, -7.615e-7
-0.075, -7.847e-7
-0.080, -8.070e-7
-0.085, -8.310e-7
-0.090, -8.540e-7
-0.095, -8.783e-7
-0.100, -9.018e-7
-0.105, -9.266e-7
-0.110, -9.507e-7
-0.115, -9.764e-7
-0.120, -1.001e-6
-0.125, -1.027e-6
-0.130, -1.053e-6
-0.135, -1.079e-6
-0.140, -1.105e-6
-0.145, -1.132e-6
-0.150, -1.159e-6
-0.155, -1.187e-6
-0.160, -1.214e-6
-0.165, -1.242e-6
-0.170, -1.270e-6
-0.175, -1.299e-6
-0.180, -1.327e-6
-0.185, -1.356e-6
-0.190, -1.385e-6
-0.195, -1.415e-6
-0.200, -1.444e-6
-0.205, -1.475e-6
-0.210, -1.504e-6
-0.215, -1.535e-6
-0.220, -1.566e-6
-0.225, -1.597e-6
-0.230, -1.628e-6
-0.235, -1.660e-6
-0.240, -1.691e-6
-0.245, -1.724e-6
-0.250, -1.756e-6
-0.255, -1.789e-6
-0.260, -1.821e-6
-0.265, -1.855e-6
-0.270, -1.888e-6
-0.275, -1.922e-6
-0.280, -1.956e-6
-0.285, -1.990e-6
-0.290, -2.024e-6
-0.295, -2.059e-6
-0.300, -2.093e-6
-0.305, -2.129e-6
-0.310, -2.163e-6
-0.315, -2.199e-6
-0.320, -2.235e-6
-0.325, -2.271e-6
-0.330, -2.307e-6
-0.335, -2.344e-6
-0.340, -2.380e-6
-0.345, -2.417e-6
-0.350, -2.454e-6
-0.355, -2.491e-6
-0.360, -2.529e-6
-0.365, -2.566e-6
-0.370, -2.604e-6
-0.375, -2.642e-6
-0.380, -2.681e-6
-0.385, -2.719e-6
-0.390, -2.758e-6
-0.395, -2.797e-6
-0.400, -2.836e-6
-0.405, -2.876e-6
-0.410, -2.914e-6
-0.415, -2.955e-6
-0.420, -2.994e-6
-0.425, -3.035e-6
-0.430, -3.074e-6
-0.435, -3.115e-6
-0.440, -3.155e-6
-0.445, -3.197e-6
-0.450, -3.237e-6
-0.455, -3.279e-6
-0.460, -3.320e-6
-0.465, -3.361e-6
-0.470, -3.402e-6
-0.475, -3.444e-6
-0.480, -3.486e-6
-0.485, -3.528e-6
-0.490, -3.570e-6
-0.495, -3.613e-6
-0.500, -3.656e-6
-0.505, -3.699e-6
-0.510, -3.741e-6
-0.515, -3.785e-6
-0.520, -3.828e-6
-0.525, -3.873e-6
-0.530, -3.917e-6
-0.535, -3.962e-6
-0.540, -4.009e-6
-0.545, -4.055e-6
-0.550, -4.103e-6
-0.555, -4.152e-6
-0.560, -4.202e-6
-0.565, -4.254e-6
-0.570, -4.305e-6
-0.575, -4.358e-6
-0.580, -4.411e-6
-0.585, -4.464e-6
-0.590, -4.517e-6
-0.595, -4.570e-6
-0.600, -4.623e-6
-0.605, -4.675e-6
-0.610, -4.727e-6
-0.615, -4.778e-6
-0.620, -4.828e-6
-0.625, -4.877e-6
-0.630, -4.926e-6
-0.635, -4.974e-6
-0.640, -5.020e-6
-0.645, -5.066e-6
-0.650, -5.111e-6
-0.655, -5.156e-6
-0.660, -5.200e-6
-0.665, -5.244e-6
-0.670, -5.286e-6
-0.675, -5.329e-6
-0.680, -5.371e-6
-0.685, -5.412e-6
-0.690, -5.453e-6
-0.695, -5.494e-6
-0.700, -5.535e-6
-0.705, -5.576e-6
-0.710, -5.616e-6
-0.715, -5.656e-6
-0.720, -5.695e-6
-0.725, -5.736e-6
-0.730, -5.775e-6
-0.735, -5.815e-6
-0.740, -5.854e-6
-0.745, -5.895e-6
-0.750, -5.934e-6
-0.755, -5.974e-6
-0.760, -6.013e-6
-0.765, -6.053e-6
-0.770, -6.092e-6
-0.775, -6.131e-6
-0.780, -6.170e-6
-0.785, -6.209e-6
-0.790, -6.248e-6
-0.795, -6.287e-6
-0.800, -6.326e-6
-0.805, -6.365e-6
-0.810, -6.405e-6
-0.815, -6.444e-6
-0.820, -6.484e-6
-0.825, -6.524e-6
-0.830, -6.564e-6
-0.835, -6.604e-6
-0.840, -6.644e-6
-0.845, -6.684e-6
-0.850, -6.724e-6
-0.855, -6.765e-6
-0.860, -6.806e-6
-0.865, -6.847e-6
-0.870, -6.888e-6
-0.875, -6.931e-6
-0.880, -6.973e-6
-0.885, -7.016e-6
-0.890, -7.059e-6
-0.895, -7.103e-6
-0.900, -7.147e-6
-0.905, -7.193e-6
-0.910, -7.239e-6
-0.915, -7.286e-6
-0.920, -7.332e-6
-0.925, -7.379e-6
-0.930, -7.431e-6
-0.935, -7.481e-6
-0.940, -7.534e-6
-0.945, -7.588e-6
-0.950, -7.641e-6
-0.955, -7.698e-6
-0.960, -7.757e-6
-0.965, -7.817e-6
-0.970, -7.880e-6
-0.975, -7.945e-6
-0.980, -8.012e-6
-0.985, -8.081e-6
-0.990, -8.153e-6
-0.995, -8.229e-6
-0.999, -8.290e-6

Segment 2:
-1.000, -8.292e-6
-0.995, -8.060e-6
-0.990, -7.848e-6
-0.985, -7.655e-6
-0.980, -7.475e-6
-0.975, -7.308e-6
-0.970, -7.147e-6
-0.965, -6.995e-6
-0.960, -6.849e-6
-0.955, -6.709e-6
-0.950, -6.573e-6
-0.945, -6.442e-6
-0.940, -6.316e-6
-0.935, -6.194e-6
-0.930, -6.076e-6
-0.925, -5.960e-6
-0.920, -5.849e-6
-0.915, -5.741e-6
-0.910, -5.635e-6
-0.905, -5.531e-6
-0.900, -5.430e-6
-0.895, -5.331e-6
-0.890, -5.235e-6
-0.885, -5.141e-6
-0.880, -5.048e-6
-0.875, -4.958e-6
-0.870, -4.870e-6
-0.865, -4.784e-6
-0.860, -4.699e-6
-0.855, -4.615e-6
-0.850, -4.534e-6
-0.845, -4.454e-6
-0.840, -4.375e-6
-0.835, -4.299e-6
-0.830, -4.224e-6
-0.825, -4.149e-6
-0.820, -4.076e-6
-0.815, -4.005e-6
-0.810, -3.934e-6
-0.805, -3.865e-6
-0.800, -3.796e-6
-0.795, -3.729e-6
-0.790, -3.663e-6
-0.785, -3.597e-6
-0.780, -3.533e-6
-0.775, -3.470e-6
-0.770, -3.408e-6
-0.765, -3.347e-6
-0.760, -3.286e-6
-0.755, -3.227e-6
-0.750, -3.167e-6
-0.745, -3.109e-6
-0.740, -3.052e-6
-0.735, -2.995e-6
-0.730, -2.939e-6
-0.725, -2.883e-6
-0.720, -2.828e-6
-0.715, -2.775e-6
-0.710, -2.722e-6
-0.705, -2.669e-6
-0.700, -2.616e-6
-0.695, -2.565e-6
-0.690, -2.514e-6
-0.685, -2.463e-6
-0.680, -2.413e-6
-0.675, -2.363e-6
-0.670, -2.314e-6
-0.665, -2.266e-6
-0.660, -2.218e-6
-0.655, -2.171e-6
-0.650, -2.123e-6
-0.645, -2.077e-6
-0.640, -2.031e-6
-0.635, -1.985e-6
-0.630, -1.940e-6
-0.625, -1.895e-6
-0.620, -1.851e-6
-0.615, -1.807e-6
-0.610, -1.764e-6
-0.605, -1.720e-6
-0.600, -1.678e-6
-0.595, -1.636e-6
-0.590, -1.594e-6
-0.585, -1.553e-6
-0.580, -1.511e-6
-0.575, -1.471e-6
-0.570, -1.430e-6
-0.565, -1.390e-6
-0.560, -1.350e-6
-0.555, -1.311e-6
-0.550, -1.272e-6
-0.545, -1.233e-6
-0.540, -1.195e-6
-0.535, -1.157e-6
-0.530, -1.119e-6
-0.525, -1.082e-6
-0.520, -1.044e-6
-0.515, -1.008e-6
-0.510, -9.712e-7
-0.505, -9.352e-7
-0.500, -8.993e-7
-0.495, -8.642e-7
-0.490, -8.291e-7
-0.485, -7.947e-7
-0.480, -7.605e-7
-0.475, -7.265e-7
-0.470, -6.925e-7
-0.465, -6.592e-7
-0.460, -6.263e-7
-0.455, -5.940e-7
-0.450, -5.620e-7
-0.445, -5.306e-7
-0.440, -4.993e-7
-0.435, -4.689e-7
-0.430, -4.385e-7
-0.425, -4.091e-7
-0.420, -3.796e-7
-0.415, -3.510e-7
-0.410, -3.224e-7
-0.405, -2.947e-7
-0.400, -2.670e-7
-0.395, -2.396e-7
-0.390, -2.127e-7
-0.385, -1.861e-7
-0.380, -1.600e-7
-0.375, -1.341e-7
-0.370, -1.086e-7
-0.365, -8.351e-8
-0.360, -5.845e-8
-0.355, -3.409e-8
-0.350, -9.485e-9
-0.345, 1.421e-8
-0.340, 3.807e-8
-0.335, 6.133e-8
-0.330, 8.452e-8
-0.325, 1.073e-7
-0.320, 1.302e-7
-0.315, 1.526e-7
-0.310, 1.746e-7
-0.305, 1.963e-7
-0.300, 2.181e-7
-0.295, 2.393e-7
-0.290, 2.604e-7
-0.285, 2.815e-7
-0.280, 3.025e-7
-0.275, 3.227e-7
-0.270, 3.433e-7
-0.265, 3.632e-7
-0.260, 3.834e-7
-0.255, 4.027e-7
-0.250, 4.224e-7
-0.245, 4.417e-7
-0.240, 4.610e-7
-0.235, 4.799e-7
-0.230, 4.986e-7
-0.225, 5.173e-7
-0.220, 5.358e-7
-0.215, 5.541e-7
-0.210, 5.724e-7
-0.205, 5.902e-7
-0.200, 6.082e-7
-0.195, 6.257e-7
-0.190, 6.435e-7
-0.185, 6.607e-7
-0.180, 6.781e-7
-0.175, 6.949e-7
-0.170, 7.121e-7
-0.165, 7.288e-7
-0.160, 7.457e-7
-0.155, 7.619e-7
-0.150, 7.783e-7
-0.145, 7.943e-7
-0.140, 8.099e-7
-0.135, 8.251e-7
-0.130, 8.402e-7
-0.125, 8.543e-7
-0.120, 8.684e-7
-0.115, 8.816e-7
-0.110, 8.949e-7
-0.105, 9.075e-7
-0.100, 9.204e-7
-0.095, 9.327e-7
-0.090, 9.459e-7
-0.085, 9.586e-7
-0.080, 9.718e-7
-0.075, 9.846e-7
-0.070, 9.974e-7
-0.065, 1.010e-6
-0.060, 1.023e-6
-0.055, 1.035e-6
-0.050, 1.048e-6
-0.045, 1.060e-6
-0.040, 1.073e-6
-0.035, 1.085e-6
-0.030, 1.097e-6
-0.025, 1.109e-6
-0.020, 1.121e-6
-0.015, 1.132e-6
-0.010, 1.144e-6
-0.005, 1.155e-6
-0.000, 1.167e-6
0.005, 1.178e-6
0.010, 1.189e-6
0.015, 1.200e-6
0.020, 1.211e-6
0.025, 1.221e-6
0.030, 1.232e-6
0.035, 1.242e-6
0.040, 1.253e-6
0.045, 1.263e-6
0.050, 1.273e-6
0.055, 1.283e-6
0.060, 1.293e-6
0.065, 1.303e-6
0.070, 1.313e-6
0.075, 1.322e-6
0.080, 1.332e-6
0.085, 1.341e-6
0.090, 1.350e-6
0.095, 1.360e-6
0.100, 1.369e-6
0.105, 1.377e-6
0.110, 1.387e-6
0.115, 1.395e-6
0.120, 1.404e-6
0.125, 1.412e-6
0.130, 1.421e-6
0.135, 1.429e-6
0.140, 1.438e-6
0.145, 1.445e-6
0.150, 1.454e-6
0.155, 1.462e-6
0.160, 1.470e-6
0.165, 1.478e-6
0.170, 1.486e-6
0.175, 1.493e-6
0.180, 1.501e-6
0.185, 1.508e-6
0.190, 1.516e-6
0.195, 1.523e-6
0.200, 1.531e-6
0.205, 1.538e-6
0.210, 1.546e-6
0.215, 1.552e-6
0.220, 1.560e-6
0.225, 1.566e-6
0.230, 1.574e-6
0.235, 1.580e-6
0.240, 1.588e-6
0.245, 1.594e-6
0.250, 1.601e-6
0.255, 1.608e-6
0.260, 1.614e-6
0.265, 1.621e-6
0.270, 1.628e-6
0.275, 1.634e-6
0.280, 1.641e-6
0.285, 1.647e-6
0.290, 1.654e-6
0.295, 1.660e-6
0.300, 1.666e-6
0.305, 1.672e-6
0.310, 1.679e-6
0.315, 1.685e-6
0.320, 1.692e-6
0.325, 1.697e-6
0.330, 1.704e-6
0.335, 1.710e-6
0.340, 1.716e-6
0.345, 1.722e-6
0.350, 1.728e-6
0.355, 1.734e-6
0.360, 1.740e-6
0.365, 1.746e-6
0.370, 1.752e-6
0.375, 1.757e-6
0.380, 1.763e-6
0.385, 1.769e-6
0.390, 1.775e-6
0.395, 1.780e-6
0.400, 1.786e-6
0.405, 1.791e-6
0.410, 1.797e-6
0.415, 1.803e-6
0.420, 1.808e-6
0.425, 1.814e-6
0.430, 1.820e-6
0.435, 1.825e-6
0.440, 1.832e-6
0.445, 1.837e-6
0.450, 1.843e-6
0.455, 1.849e-6
0.460, 1.856e-6
0.465, 1.861e-6
0.470, 1.868e-6
0.475, 1.874e-6
0.480, 1.880e-6
0.485, 1.887e-6
0.490, 1.893e-6
0.495, 1.900e-6
0.499, 1.905e-6