Folder: graphene-production/data/raw_data/electrochemistry/20170904_Gr-NH2_prod_for_Radisurf

File: 15 min cv 1.txt
Sept. 4, 2017   10:54:56
Cyclic Voltammetry
File: 15 min cv 1
Data Source:  Experiment
Instrument Model:  CHI601D
Header:
Note:

Init E (V) = 0.2
High E (V) = 0.2
Low E (V) = -1
Final E (V) = 0.2
Init P/N = N
Scan Rate (V/s) = 0.1
Segment = 2
Sample Interval (V) = 0.001
Quiet Time (sec) = 2
Sensitivity (A/V) = 1e-5

Potential/V, Current/A

Segment 1:
0.200, -1.880e-8
0.196, -4.167e-8
0.192, -5.060e-8
0.188, -5.769e-8
0.184, -6.441e-8
0.180, -7.012e-8
0.176, -7.592e-8
0.172, -8.174e-8
0.168, -8.718e-8
0.164, -9.288e-8
0.160, -9.864e-8
0.156, -1.046e-7
0.152, -1.103e-7
0.148, -1.160e-7
0.144, -1.220e-7
0.140, -1.283e-7
0.136, -1.343e-7
0.132, -1.404e-7
0.128, -1.468e-7
0.124, -1.535e-7
0.120, -1.602e-7
0.116, -1.667e-7
0.112, -1.741e-7
0.108, -1.811e-7
0.104, -1.885e-7
0.100, -1.953e-7
0.096, -2.039e-7
0.092, -2.112e-7
0.088, -2.194e-7
0.084, -2.277e-7
0.080, -2.352e-7
0.076, -2.436e-7
0.072, -2.529e-7
0.068, -2.614e-7
0.064, -2.704e-7
0.060, -2.794e-7
0.056, -2.890e-7
0.052, -2.980e-7
0.048, -3.075e-7
0.044, -3.171e-7
0.040, -3.275e-7
0.036, -3.368e-7
0.032, -3.470e-7
0.028, -3.569e-7
0.024, -3.675e-7
0.020, -3.779e-7
0.016, -3.880e-7
0.012, -3.987e-7
0.008, -4.098e-7
0.004, -4.207e-7
-0.000, -4.308e-7
-0.004, -4.420e-7
-0.008, -4.536e-7
-0.012, -4.649e-7
-0.016, -4.759e-7
-0.020, -4.870e-7
-0.024, -4.990e-7
-0.028, -5.103e-7
-0.032, -5.223e-7
-0.036, -5.331e-7
-0.040, -5.455e-7
-0.044, -5.568e-7
-0.048, -5.693e-7
-0.052, -5.806e-7
-0.056, -5.934e-7
-0.060, -6.051e-7
-0.064, -6.180e-7
-0.068, -6.295e-7
-0.072, -6.423e-7
-0.076, -6.543e-7
-0.080, -6.667e-7
-0.084, -6.793e-7
-0.088, -6.926e-7
-0.092, -7.052e-7
-0.096, -7.182e-7
-0.100, -7.309e-7
-0.104, -7.435e-7
-0.108, -7.569e-7
-0.112, -7.703e-7
-0.116, -7.838e-7
-0.120, -7.977e-7
-0.124, -8.113e-7
-0.128, -8.248e-7
-0.132, -8.392e-7
-0.136, -8.537e-7
-0.140, -8.681e-7
-0.144, -8.824e-7
-0.148, -8.972e-7
-0.152, -9.129e-7
-0.156, -9.275e-7
-0.160, -9.428e-7
-0.164, -9.584e-7
-0.168, -9.743e-7
-0.172, -9.898e-7
-0.176, -1.006e-6
-0.180, -1.022e-6
-0.184, -1.039e-6
-0.188, -1.056e-6
-0.192, -1.073e-6
-0.196, -1.090e-6
-0.200, -1.108e-6
-0.204, -1.125e-6
-0.208, -1.143e-6
-0.212, -1.162e-6
-0.216, -1.180e-6
-0.220, -1.199e-6
-0.224, -1.218e-6
-0.228, -1.237e-6
-0.232, -1.257e-6
-0.236, -1.276e-6
-0.240, -1.297e-6
-0.244, -1.317e-6
-0.248, -1.338e-6
-0.252, -1.359e-6
-0.256, -1.381e-6
-0.260, -1.403e-6
-0.264, -1.426e-6
-0.268, -1.449e-6
-0.272, -1.472e-6
-0.276, -1.496e-6
-0.280, -1.521e-6
-0.284, -1.546e-6
-0.288, -1.572e-6
-0.292, -1.599e-6
-0.296, -1.627e-6
-0.300, -1.655e-6
-0.304, -1.684e-6
-0.308, -1.714e-6
-0.312, -1.747e-6
-0.316, -1.780e-6
-0.320, -1.815e-6
-0.324, -1.850e-6
-0.328, -1.888e-6
-0.332, -1.928e-6
-0.336, -1.967e-6
-0.340, -2.010e-6
-0.344, -2.054e-6
-0.348, -2.100e-6
-0.352, -2.147e-6
-0.356, -2.196e-6
-0.360, -2.247e-6
-0.364, -2.299e-6
-0.368, -2.351e-6
-0.372, -2.404e-6
-0.376, -2.458e-6
-0.380, -2.511e-6
-0.384, -2.563e-6
-0.388, -2.614e-6
-0.392, -2.663e-6
-0.396, -2.709e-6
-0.400, -2.751e-6
-0.404, -2.790e-6
-0.408, -2.826e-6
-0.412, -2.856e-6
-0.416, -2.886e-6
-0.420, -2.911e-6
-0.424, -2.935e-6
-0.428, -2.957e-6
-0.432, -2.977e-6
-0.436, -2.997e-6
-0.440, -3.017e-6
-0.444, -3.036e-6
-0.448, -3.055e-6
-0.452, -3.073e-6
-0.456, -3.093e-6
-0.460, -3.112e-6
-0.464, -3.132e-6
-0.468, -3.152e-6
-0.472, -3.174e-6
-0.476, -3.195e-6
-0.480, -3.217e-6
-0.484, -3.239e-6
-0.488, -3.262e-6
-0.492, -3.284e-6
-0.496, -3.306e-6
-0.500, -3.330e-6
-0.504, -3.354e-6
-0.508, -3.379e-6
-0.512, -3.401e-6
-0.516, -3.426e-6
-0.520, -3.452e-6
-0.524, -3.477e-6
-0.528, -3.502e-6
-0.532, -3.527e-6
-0.536, -3.553e-6
-0.540, -3.579e-6
-0.544, -3.604e-6
-0.548, -3.630e-6
-0.552, -3.657e-6
-0.556, -3.684e-6
-0.560, -3.709e-6
-0.564, -3.736e-6
-0.568, -3.763e-6
-0.572, -3.790e-6
-0.576, -3.817e-6
-0.580, -3.844e-6
-0.584, -3.871e-6
-0.588, -3.898e-6
-0.592, -3.925e-6
-0.596, -3.953e-6
-0.600, -3.980e-6
-0.604, -4.008e-6
-0.608, -4.036e-6
-0.612, -4.064e-6
-0.616, -4.093e-6
-0.620, -4.120e-6
-0.624, -4.148e-6
-0.628, -4.177e-6
-0.632, -4.206e-6
-0.636, -4.235e-6
-0.640, -4.263e-6
-0.644, -4.292e-6
-0.648, -4.322e-6
-0.652, -4.352e-6
-0.656, -4.382e-6
-0.660, -4.411e-6
-0.664, -4.443e-6
-0.668, -4.473e-6
-0.672, -4.503e-6
-0.676, -4.533e-6
-0.680, -4.564e-6
-0.684, -4.595e-6
-0.688, -4.627e-6
-0.692, -4.658e-6
-0.696, -4.690e-6
-0.700, -4.722e-6
-0.704, -4.753e-6
-0.708, -4.786e-6
-0.712, -4.819e-6
-0.716, -4.851e-6
-0.720, -4.882e-6
-0.724, -4.916e-6
-0.728, -4.948e-6
-0.732, -4.982e-6
-0.736, -5.015e-6
-0.740, -5.048e-6
-0.744, -5.084e-6
-0.748, -5.117e-6
-0.752, -5.152e-6
-0.756, -5.186e-6
-0.760, -5.220e-6
-0.764, -5.255e-6
-0.768, -5.289e-6
-0.772, -5.324e-6
-0.776, -5.359e-6
-0.780, -5.393e-6
-0.784, -5.428e-6
-0.788, -5.463e-6
-0.792, -5.498e-6
-0.796, -5.533e-6
-0.800, -5.569e-6
-0.804, -5.604e-6
-0.808, -5.642e-6
-0.812, -5.677e-6
-0.816, -5.712e-6
-0.820, -5.750e-6
-0.824, -5.786e-6
-0.828, -5.823e-6
-0.832, -5.859e-6
-0.836, -5.896e-6
-0.840, -5.933e-6
-0.844, -5.970e-6
-0.848, -6.006e-6
-0.852, -6.045e-6
-0.856, -6.085e-6
-0.860, -6.123e-6
-0.864, -6.160e-6
-0.868, -6.199e-6
-0.872, -6.238e-6
-0.876, -6.276e-6
-0.880, -6.312e-6
-0.884, -6.350e-6
-0.888, -6.387e-6
-0.892, -6.427e-6
-0.896, -6.465e-6
-0.900, -6.503e-6
-0.904, -6.543e-6
-0.908, -6.581e-6
-0.912, -6.621e-6
-0.916, -6.662e-6
-0.920, -6.701e-6
-0.924, -6.739e-6
-0.928, -6.779e-6
-0.932, -6.822e-6
-0.936, -6.865e-6
-0.940, -6.908e-6
-0.944, -6.952e-6
-0.948, -6.994e-6
-0.952, -7.039e-6
-0.956, -7.083e-6
-0.960, -7.127e-6
-0.964, -7.172e-6
-0.968, -7.220e-6
-0.972, -7.263e-6
-0.976, -7.312e-6
-0.980, -7.361e-6
-0.984, -7.413e-6
-0.988, -7.463e-6
-0.992, -7.516e-6
-0.996, -7.569e-6
-0.999, -7.613e-6

Segment 2:
-1.000, -7.598e-6
-0.996, -7.162e-6
-0.992, -6.819e-6
-0.988, -6.525e-6
-0.984, -6.263e-6
-0.980, -6.029e-6
-0.976, -5.821e-6
-0.972, -5.629e-6
-0.968, -5.450e-6
-0.964, -5.281e-6
-0.960, -5.124e-6
-0.956, -4.978e-6
-0.952, -4.840e-6
-0.948, -4.705e-6
-0.944, -4.578e-6
-0.940, -4.458e-6
-0.936, -4.343e-6
-0.932, -4.236e-6
-0.928, -4.136e-6
-0.924, -4.034e-6
-0.920, -3.938e-6
-0.916, -3.843e-6
-0.912, -3.754e-6
-0.908, -3.669e-6
-0.904, -3.585e-6
-0.900, -3.504e-6
-0.896, -3.421e-6
-0.892, -3.345e-6
-0.888, -3.277e-6
-0.884, -3.205e-6
-0.880, -3.137e-6
-0.876, -3.070e-6
-0.872, -3.005e-6
-0.868, -2.942e-6
-0.864, -2.881e-6
-0.860, -2.816e-6
-0.856, -2.760e-6
-0.852, -2.702e-6
-0.848, -2.648e-6
-0.844, -2.595e-6
-0.840, -2.541e-6
-0.836, -2.489e-6
-0.832, -2.439e-6
-0.828, -2.390e-6
-0.824, -2.342e-6
-0.820, -2.296e-6
-0.816, -2.252e-6
-0.812, -2.208e-6
-0.808, -2.162e-6
-0.804, -2.117e-6
-0.800, -2.075e-6
-0.796, -2.035e-6
-0.792, -1.995e-6
-0.788, -1.954e-6
-0.784, -1.915e-6
-0.780, -1.875e-6
-0.776, -1.838e-6
-0.772, -1.800e-6
-0.768, -1.763e-6
-0.764, -1.728e-6
-0.760, -1.693e-6
-0.756, -1.659e-6
-0.752, -1.623e-6
-0.748, -1.590e-6
-0.744, -1.557e-6
-0.740, -1.525e-6
-0.736, -1.495e-6
-0.732, -1.464e-6
-0.728, -1.435e-6
-0.724, -1.405e-6
-0.720, -1.376e-6
-0.716, -1.348e-6
-0.712, -1.321e-6
-0.708, -1.291e-6
-0.704, -1.265e-6
-0.700, -1.238e-6
-0.696, -1.210e-6
-0.692, -1.184e-6
-0.688, -1.158e-6
-0.684, -1.133e-6
-0.680, -1.108e-6
-0.676, -1.083e-6
-0.672, -1.060e-6
-0.668, -1.035e-6
-0.664, -1.012e-6
-0.660, -9.880e-7
-0.656, -9.661e-7
-0.652, -9.427e-7
-0.648, -9.214e-7
-0.644, -8.991e-7
-0.640, -8.775e-7
-0.636, -8.573e-7
-0.632, -8.351e-7
-0.628, -8.149e-7
-0.624, -7.951e-7
-0.620, -7.751e-7
-0.616, -7.556e-7
-0.612, -7.363e-7
-0.608, -7.171e-7
-0.604, -6.985e-7
-0.600, -6.798e-7
-0.596, -6.608e-7
-0.592, -6.434e-7
-0.588, -6.255e-7
-0.584, -6.075e-7
-0.580, -5.904e-7
-0.576, -5.732e-7
-0.572, -5.560e-7
-0.568, -5.392e-7
-0.564, -5.232e-7
-0.560, -5.066e-7
-0.556, -4.898e-7
-0.552, -4.743e-7
-0.548, -4.581e-7
-0.544, -4.422e-7
-0.540, -4.271e-7
-0.536, -4.115e-7
-0.532, -3.958e-7
-0.528, -3.807e-7
-0.524, -3.659e-7
-0.520, -3.509e-7
-0.516, -3.359e-7
-0.512, -3.221e-7
-0.508, -3.074e-7
-0.504, -2.920e-7
-0.500, -2.781e-7
-0.496, -2.637e-7
-0.492, -2.491e-7
-0.488, -2.346e-7
-0.484, -2.208e-7
-0.480, -2.070e-7
-0.476, -1.927e-7
-0.472, -1.793e-7
-0.468, -1.653e-7
-0.464, -1.520e-7
-0.460, -1.382e-7
-0.456, -1.250e-7
-0.452, -1.114e-7
-0.448, -9.817e-8
-0.444, -8.489e-8
-0.440, -7.197e-8
-0.436, -5.954e-8
-0.432, -4.707e-8
-0.428, -3.434e-8
-0.424, -2.198e-8
-0.420, -9.812e-9
-0.416, 2.122e-9
-0.412, 1.371e-8
-0.408, 2.519e-8
-0.404, 3.626e-8
-0.400, 4.694e-8
-0.396, 5.734e-8
-0.392, 6.704e-8
-0.388, 7.780e-8
-0.384, 8.735e-8
-0.380, 9.675e-8
-0.376, 1.060e-7
-0.372, 1.146e-7
-0.368, 1.234e-7
-0.364, 1.320e-7
-0.360, 1.401e-7
-0.356, 1.480e-7
-0.352, 1.557e-7
-0.348, 1.625e-7
-0.344, 1.700e-7
-0.340, 1.773e-7
-0.336, 1.839e-7
-0.332, 1.901e-7
-0.328, 1.968e-7
-0.324, 2.026e-7
-0.320, 2.086e-7
-0.316, 2.136e-7
-0.312, 2.199e-7
-0.308, 2.256e-7
-0.304, 2.310e-7
-0.300, 2.362e-7
-0.296, 2.416e-7
-0.292, 2.468e-7
-0.288, 2.515e-7
-0.284, 2.560e-7
-0.280, 2.607e-7
-0.276, 2.652e-7
-0.272, 2.698e-7
-0.268, 2.743e-7
-0.264, 2.788e-7
-0.260, 2.831e-7
-0.256, 2.873e-7
-0.252, 2.916e-7
-0.248, 2.959e-7
-0.244, 2.997e-7
-0.240, 3.035e-7
-0.236, 3.074e-7
-0.232, 3.113e-7
-0.228, 3.149e-7
-0.224, 3.188e-7
-0.220, 3.225e-7
-0.216, 3.262e-7
-0.212, 3.296e-7
-0.208, 3.332e-7
-0.204, 3.368e-7
-0.200, 3.408e-7
-0.196, 3.443e-7
-0.192, 3.476e-7
-0.188, 3.507e-7
-0.184, 3.544e-7
-0.180, 3.575e-7
-0.176, 3.605e-7
-0.172, 3.638e-7
-0.168, 3.677e-7
-0.164, 3.708e-7
-0.160, 3.740e-7
-0.156, 3.772e-7
-0.152, 3.807e-7
-0.148, 3.836e-7
-0.144, 3.869e-7
-0.140, 3.907e-7
-0.136, 3.942e-7
-0.132, 3.971e-7
-0.128, 4.002e-7
-0.124, 4.031e-7
-0.120, 4.065e-7
-0.116, 4.092e-7
-0.112, 4.121e-7
-0.108, 4.157e-7
-0.104, 4.190e-7
-0.100, 4.218e-7
-0.096, 4.245e-7
-0.092, 4.273e-7
-0.088, 4.304e-7
-0.084, 4.326e-7
-0.080, 4.350e-7
-0.076, 4.372e-7
-0.072, 4.399e-7
-0.068, 4.420e-7
-0.064, 4.437e-7
-0.060, 4.454e-7
-0.056, 4.471e-7
-0.052, 4.483e-7
-0.048, 4.494e-7
-0.044, 4.504e-7
-0.040, 4.518e-7
-0.036, 4.528e-7
-0.032, 4.539e-7
-0.028, 4.551e-7
-0.024, 4.567e-7
-0.020, 4.578e-7
-0.016, 4.594e-7
-0.012, 4.608e-7
-0.008, 4.632e-7
-0.004, 4.648e-7
-0.000, 4.661e-7
0.004, 4.680e-7
0.008, 4.703e-7
0.012, 4.720e-7
0.016, 4.737e-7
0.020, 4.756e-7
0.024, 4.777e-7
0.028, 4.795e-7
0.032, 4.812e-7
0.036, 4.827e-7
0.040, 4.850e-7
0.044, 4.868e-7
0.048, 4.886e-7
0.052, 4.905e-7
0.056, 4.924e-7
0.060, 4.941e-7
0.064, 4.960e-7
0.068, 4.978e-7
0.072, 5.002e-7
0.076, 5.019e-7
0.080, 5.037e-7
0.084, 5.053e-7
0.088, 5.073e-7
0.092, 5.088e-7
0.096, 5.105e-7
0.100, 5.127e-7
0.104, 5.146e-7
0.108, 5.164e-7
0.112, 5.181e-7
0.116, 5.197e-7
0.120, 5.216e-7
0.124, 5.233e-7
0.128, 5.251e-7
0.132, 5.268e-7
0.136, 5.287e-7
0.140, 5.303e-7
0.144, 5.319e-7
0.148, 5.336e-7
0.152, 5.357e-7
0.156, 5.375e-7
0.160, 5.392e-7
0.164, 5.406e-7
0.168, 5.427e-7
0.172, 5.440e-7
0.176, 5.455e-7
0.180, 5.472e-7
0.184, 5.494e-7
0.188, 5.509e-7
0.192, 5.528e-7
0.196, 5.543e-7
0.199, 5.566e-7

File: 30 min cv 1.txt
Sept. 4, 2017   11:12:48
Cyclic Voltammetry
File: 30 min cv 1
Data Source:  Experiment
Instrument Model:  CHI601D
Header:
Note:

Init E (V) = 0.2
High E (V) = 0.2
Low E (V) = -1
Final E (V) = 0.2
Init P/N = N
Scan Rate (V/s) = 0.1
Segment = 2
Sample Interval (V) = 0.001
Quiet Time (sec) = 2
Sensitivity (A/V) = 1e-5

Potential/V, Current/A

Segment 1:
0.200, -2.109e-8
0.196, -3.767e-8
0.192, -4.305e-8
0.188, -4.714e-8
0.184, -5.117e-8
0.180, -5.476e-8
0.176, -5.796e-8
0.172, -6.091e-8
0.168, -6.456e-8
0.164, -6.762e-8
0.160, -7.072e-8
0.156, -7.377e-8
0.152, -7.770e-8
0.148, -8.099e-8
0.144, -8.372e-8
0.140, -8.704e-8
0.136, -9.086e-8
0.132, -9.438e-8
0.128, -9.806e-8
0.124, -1.017e-7
0.120, -1.058e-7
0.116, -1.093e-7
0.112, -1.128e-7
0.108, -1.168e-7
0.104, -1.211e-7
0.100, -1.252e-7
0.096, -1.296e-7
0.092, -1.333e-7
0.088, -1.378e-7
0.084, -1.420e-7
0.080, -1.462e-7
0.076, -1.513e-7
0.072, -1.560e-7
0.068, -1.602e-7
0.064, -1.652e-7
0.060, -1.699e-7
0.056, -1.759e-7
0.052, -1.805e-7
0.048, -1.850e-7
0.044, -1.904e-7
0.040, -1.960e-7
0.036, -2.021e-7
0.032, -2.076e-7
0.028, -2.130e-7
0.024, -2.191e-7
0.020, -2.254e-7
0.016, -2.308e-7
0.012, -2.368e-7
0.008, -2.432e-7
0.004, -2.496e-7
-0.000, -2.558e-7
-0.004, -2.625e-7
-0.008, -2.693e-7
-0.012, -2.763e-7
-0.016, -2.829e-7
-0.020, -2.897e-7
-0.024, -2.970e-7
-0.028, -3.040e-7
-0.032, -3.116e-7
-0.036, -3.183e-7
-0.040, -3.267e-7
-0.044, -3.336e-7
-0.048, -3.406e-7
-0.052, -3.490e-7
-0.056, -3.570e-7
-0.060, -3.647e-7
-0.064, -3.732e-7
-0.068, -3.807e-7
-0.072, -3.893e-7
-0.076, -3.976e-7
-0.080, -4.062e-7
-0.084, -4.146e-7
-0.088, -4.240e-7
-0.092, -4.326e-7
-0.096, -4.414e-7
-0.100, -4.504e-7
-0.104, -4.604e-7
-0.108, -4.698e-7
-0.112, -4.789e-7
-0.116, -4.883e-7
-0.120, -4.987e-7
-0.124, -5.084e-7
-0.128, -5.190e-7
-0.132, -5.285e-7
-0.136, -5.394e-7
-0.140, -5.497e-7
-0.144, -5.606e-7
-0.148, -5.720e-7
-0.152, -5.830e-7
-0.156, -5.944e-7
-0.160, -6.057e-7
-0.164, -6.181e-7
-0.168, -6.299e-7
-0.172, -6.417e-7
-0.176, -6.536e-7
-0.180, -6.664e-7
-0.184, -6.794e-7
-0.188, -6.919e-7
-0.192, -7.051e-7
-0.196, -7.184e-7
-0.200, -7.322e-7
-0.204, -7.453e-7
-0.208, -7.592e-7
-0.212, -7.730e-7
-0.216, -7.883e-7
-0.220, -8.020e-7
-0.224, -8.169e-7
-0.228, -8.310e-7
-0.232, -8.465e-7
-0.236, -8.620e-7
-0.240, -8.768e-7
-0.244, -8.927e-7
-0.248, -9.084e-7
-0.252, -9.240e-7
-0.256, -9.403e-7
-0.260, -9.562e-7
-0.264, -9.731e-7
-0.268, -9.896e-7
-0.272, -1.006e-6
-0.276, -1.023e-6
-0.280, -1.041e-6
-0.284, -1.058e-6
-0.288, -1.075e-6
-0.292, -1.093e-6
-0.296, -1.112e-6
-0.300, -1.130e-6
-0.304, -1.147e-6
-0.308, -1.166e-6
-0.312, -1.185e-6
-0.316, -1.204e-6
-0.320, -1.223e-6
-0.324, -1.243e-6
-0.328, -1.263e-6
-0.332, -1.283e-6
-0.336, -1.303e-6
-0.340, -1.324e-6
-0.344, -1.345e-6
-0.348, -1.365e-6
-0.352, -1.387e-6
-0.356, -1.408e-6
-0.360, -1.430e-6
-0.364, -1.452e-6
-0.368, -1.474e-6
-0.372, -1.496e-6
-0.376, -1.519e-6
-0.380, -1.542e-6
-0.384, -1.565e-6
-0.388, -1.589e-6
-0.392, -1.613e-6
-0.396, -1.637e-6
-0.400, -1.661e-6
-0.404, -1.685e-6
-0.408, -1.711e-6
-0.412, -1.735e-6
-0.416, -1.760e-6
-0.420, -1.785e-6
-0.424, -1.812e-6
-0.428, -1.837e-6
-0.432, -1.863e-6
-0.436, -1.890e-6
-0.440, -1.917e-6
-0.444, -1.944e-6
-0.448, -1.972e-6
-0.452, -1.999e-6
-0.456, -2.028e-6
-0.460, -2.055e-6
-0.464, -2.084e-6
-0.468, -2.113e-6
-0.472, -2.142e-6
-0.476, -2.171e-6
-0.480, -2.201e-6
-0.484, -2.231e-6
-0.488, -2.262e-6
-0.492, -2.293e-6
-0.496, -2.323e-6
-0.500, -2.355e-6
-0.504, -2.386e-6
-0.508, -2.418e-6
-0.512, -2.450e-6
-0.516, -2.483e-6
-0.520, -2.517e-6
-0.524, -2.550e-6
-0.528, -2.584e-6
-0.532, -2.618e-6
-0.536, -2.652e-6
-0.540, -2.686e-6
-0.544, -2.721e-6
-0.548, -2.755e-6
-0.552, -2.790e-6
-0.556, -2.825e-6
-0.560, -2.859e-6
-0.564, -2.895e-6
-0.568, -2.929e-6
-0.572, -2.964e-6
-0.576, -2.999e-6
-0.580, -3.033e-6
-0.584, -3.069e-6
-0.588, -3.102e-6
-0.592, -3.136e-6
-0.596, -3.171e-6
-0.600, -3.205e-6
-0.604, -3.239e-6
-0.608, -3.272e-6
-0.612, -3.306e-6
-0.616, -3.340e-6
-0.620, -3.374e-6
-0.624, -3.407e-6
-0.628, -3.441e-6
-0.632, -3.475e-6
-0.636, -3.510e-6
-0.640, -3.542e-6
-0.644, -3.576e-6
-0.648, -3.611e-6
-0.652, -3.644e-6
-0.656, -3.678e-6
-0.660, -3.712e-6
-0.664, -3.747e-6
-0.668, -3.781e-6
-0.672, -3.815e-6
-0.676, -3.850e-6
-0.680, -3.885e-6
-0.684, -3.920e-6
-0.688, -3.956e-6
-0.692, -3.990e-6
-0.696, -4.027e-6
-0.700, -4.063e-6
-0.704, -4.099e-6
-0.708, -4.135e-6
-0.712, -4.171e-6
-0.716, -4.209e-6
-0.720, -4.245e-6
-0.724, -4.282e-6
-0.728, -4.320e-6
-0.732, -4.357e-6
-0.736, -4.396e-6
-0.740, -4.433e-6
-0.744, -4.472e-6
-0.748, -4.510e-6
-0.752, -4.549e-6
-0.756, -4.589e-6
-0.760, -4.628e-6
-0.764, -4.667e-6
-0.768, -4.707e-6
-0.772, -4.746e-6
-0.776, -4.787e-6
-0.780, -4.827e-6
-0.784, -4.868e-6
-0.788, -4.908e-6
-0.792, -4.949e-6
-0.796, -4.990e-6
-0.800, -5.032e-6
-0.804, -5.074e-6
-0.808, -5.116e-6
-0.812, -5.158e-6
-0.816, -5.200e-6
-0.820, -5.243e-6
-0.824, -5.285e-6
-0.828, -5.328e-6
-0.832, -5.371e-6
-0.836, -5.414e-6
-0.840, -5.457e-6
-0.844, -5.501e-6
-0.848, -5.544e-6
-0.852, -5.588e-6
-0.856, -5.632e-6
-0.860, -5.677e-6
-0.864, -5.721e-6
-0.868, -5.766e-6
-0.872, -5.812e-6
-0.876, -5.856e-6
-0.880, -5.902e-6
-0.884, -5.948e-6
-0.888, -5.995e-6
-0.892, -6.041e-6
-0.896, -6.088e-6
-0.900, -6.134e-6
-0.904, -6.182e-6
-0.908, -6.230e-6
-0.912, -6.277e-6
-0.916, -6.326e-6
-0.920, -6.375e-6
-0.924, -6.423e-6
-0.928, -6.472e-6
-0.932, -6.522e-6
-0.936, -6.573e-6
-0.940, -6.623e-6
-0.944, -6.675e-6
-0.948, -6.727e-6
-0.952, -6.780e-6
-0.956, -6.833e-6
-0.960, -6.885e-6
-0.964, -6.940e-6
-0.968, -6.995e-6
-0.972, -7.049e-6
-0.976, -7.107e-6
-0.980, -7.165e-6
-0.984, -7.224e-6
-0.988, -7.284e-6
-0.992, -7.345e-6
-0.996, -7.408e-6
-0.999, -7.456e-6

Segment 2:
-1.000, -7.452e-6
-0.996, -7.169e-6
-0.992, -6.925e-6
-0.988, -6.707e-6
-0.984, -6.508e-6
-0.980, -6.325e-6
-0.976, -6.156e-6
-0.972, -5.997e-6
-0.968, -5.845e-6
-0.964, -5.702e-6
-0.960, -5.566e-6
-0.956, -5.437e-6
-0.952, -5.312e-6
-0.948, -5.192e-6
-0.944, -5.078e-6
-0.940, -4.968e-6
-0.936, -4.861e-6
-0.932, -4.758e-6
-0.928, -4.658e-6
-0.924, -4.562e-6
-0.920, -4.470e-6
-0.916, -4.380e-6
-0.912, -4.293e-6
-0.908, -4.208e-6
-0.904, -4.125e-6
-0.900, -4.046e-6
-0.896, -3.967e-6
-0.892, -3.892e-6
-0.888, -3.818e-6
-0.884, -3.746e-6
-0.880, -3.676e-6
-0.876, -3.607e-6
-0.872, -3.540e-6
-0.868, -3.474e-6
-0.864, -3.410e-6
-0.860, -3.347e-6
-0.856, -3.286e-6
-0.852, -3.226e-6
-0.848, -3.168e-6
-0.844, -3.111e-6
-0.840, -3.055e-6
-0.836, -3.000e-6
-0.832, -2.946e-6
-0.828, -2.894e-6
-0.824, -2.842e-6
-0.820, -2.791e-6
-0.816, -2.741e-6
-0.812, -2.692e-6
-0.808, -2.644e-6
-0.804, -2.597e-6
-0.800, -2.551e-6
-0.796, -2.505e-6
-0.792, -2.461e-6
-0.788, -2.417e-6
-0.784, -2.375e-6
-0.780, -2.333e-6
-0.776, -2.291e-6
-0.772, -2.250e-6
-0.768, -2.210e-6
-0.764, -2.170e-6
-0.760, -2.131e-6
-0.756, -2.093e-6
-0.752, -2.055e-6
-0.748, -2.019e-6
-0.744, -1.982e-6
-0.740, -1.946e-6
-0.736, -1.911e-6
-0.732, -1.876e-6
-0.728, -1.841e-6
-0.724, -1.807e-6
-0.720, -1.775e-6
-0.716, -1.742e-6
-0.712, -1.710e-6
-0.708, -1.678e-6
-0.704, -1.647e-6
-0.700, -1.616e-6
-0.696, -1.585e-6
-0.692, -1.556e-6
-0.688, -1.526e-6
-0.684, -1.497e-6
-0.680, -1.468e-6
-0.676, -1.440e-6
-0.672, -1.412e-6
-0.668, -1.385e-6
-0.664, -1.357e-6
-0.660, -1.331e-6
-0.656, -1.304e-6
-0.652, -1.278e-6
-0.648, -1.252e-6
-0.644, -1.227e-6
-0.640, -1.202e-6
-0.636, -1.177e-6
-0.632, -1.152e-6
-0.628, -1.128e-6
-0.624, -1.105e-6
-0.620, -1.081e-6
-0.616, -1.059e-6
-0.612, -1.035e-6
-0.608, -1.013e-6
-0.604, -9.904e-7
-0.600, -9.681e-7
-0.596, -9.470e-7
-0.592, -9.255e-7
-0.588, -9.045e-7
-0.584, -8.837e-7
-0.580, -8.639e-7
-0.576, -8.431e-7
-0.572, -8.230e-7
-0.568, -8.035e-7
-0.564, -7.844e-7
-0.560, -7.654e-7
-0.556, -7.462e-7
-0.552, -7.282e-7
-0.548, -7.096e-7
-0.544, -6.916e-7
-0.540, -6.741e-7
-0.536, -6.561e-7
-0.532, -6.390e-7
-0.528, -6.224e-7
-0.524, -6.051e-7
-0.520, -5.883e-7
-0.516, -5.726e-7
-0.512, -5.564e-7
-0.508, -5.408e-7
-0.504, -5.252e-7
-0.500, -5.102e-7
-0.496, -4.951e-7
-0.492, -4.803e-7
-0.488, -4.658e-7
-0.484, -4.512e-7
-0.480, -4.373e-7
-0.476, -4.237e-7
-0.472, -4.097e-7
-0.468, -3.960e-7
-0.464, -3.830e-7
-0.460, -3.703e-7
-0.456, -3.574e-7
-0.452, -3.446e-7
-0.448, -3.325e-7
-0.444, -3.203e-7
-0.440, -3.082e-7
-0.436, -2.961e-7
-0.432, -2.848e-7
-0.428, -2.735e-7
-0.424, -2.619e-7
-0.420, -2.507e-7
-0.416, -2.397e-7
-0.412, -2.294e-7
-0.408, -2.183e-7
-0.404, -2.081e-7
-0.400, -1.976e-7
-0.396, -1.875e-7
-0.392, -1.780e-7
-0.388, -1.677e-7
-0.384, -1.581e-7
-0.380, -1.490e-7
-0.376, -1.389e-7
-0.372, -1.301e-7
-0.368, -1.209e-7
-0.364, -1.119e-7
-0.360, -1.031e-7
-0.356, -9.414e-8
-0.352, -8.540e-8
-0.348, -7.756e-8
-0.344, -6.879e-8
-0.340, -6.075e-8
-0.336, -5.301e-8
-0.332, -4.494e-8
-0.328, -3.628e-8
-0.324, -2.912e-8
-0.320, -2.121e-8
-0.316, -1.382e-8
-0.312, -6.106e-9
-0.308, 1.308e-9
-0.304, 8.310e-9
-0.300, 1.567e-8
-0.296, 2.301e-8
-0.292, 2.972e-8
-0.288, 3.672e-8
-0.284, 4.313e-8
-0.280, 5.025e-8
-0.276, 5.651e-8
-0.272, 6.294e-8
-0.268, 6.916e-8
-0.264, 7.636e-8
-0.260, 8.254e-8
-0.256, 8.865e-8
-0.252, 9.476e-8
-0.248, 1.013e-7
-0.244, 1.071e-7
-0.240, 1.129e-7
-0.236, 1.188e-7
-0.232, 1.256e-7
-0.228, 1.314e-7
-0.224, 1.371e-7
-0.220, 1.428e-7
-0.216, 1.492e-7
-0.212, 1.550e-7
-0.208, 1.604e-7
-0.204, 1.658e-7
-0.200, 1.721e-7
-0.196, 1.781e-7
-0.192, 1.837e-7
-0.188, 1.889e-7
-0.184, 1.948e-7
-0.180, 2.001e-7
-0.176, 2.054e-7
-0.172, 2.108e-7
-0.168, 2.161e-7
-0.164, 2.218e-7
-0.160, 2.271e-7
-0.156, 2.327e-7
-0.152, 2.380e-7
-0.148, 2.433e-7
-0.144, 2.482e-7
-0.140, 2.530e-7
-0.136, 2.579e-7
-0.132, 2.624e-7
-0.128, 2.670e-7
-0.124, 2.717e-7
-0.120, 2.761e-7
-0.116, 2.805e-7
-0.112, 2.848e-7
-0.108, 2.888e-7
-0.104, 2.932e-7
-0.100, 2.967e-7
-0.096, 3.003e-7
-0.092, 3.041e-7
-0.088, 3.080e-7
-0.084, 3.112e-7
-0.080, 3.149e-7
-0.076, 3.188e-7
-0.072, 3.225e-7
-0.068, 3.262e-7
-0.064, 3.299e-7
-0.060, 3.335e-7
-0.056, 3.379e-7
-0.052, 3.420e-7
-0.048, 3.455e-7
-0.044, 3.492e-7
-0.040, 3.533e-7
-0.036, 3.570e-7
-0.032, 3.603e-7
-0.028, 3.642e-7
-0.024, 3.684e-7
-0.020, 3.718e-7
-0.016, 3.754e-7
-0.012, 3.793e-7
-0.008, 3.830e-7
-0.004, 3.867e-7
-0.000, 3.904e-7
0.004, 3.944e-7
0.008, 3.981e-7
0.012, 4.017e-7
0.016, 4.051e-7
0.020, 4.083e-7
0.024, 4.120e-7
0.028, 4.157e-7
0.032, 4.194e-7
0.036, 4.228e-7
0.040, 4.266e-7
0.044, 4.298e-7
0.048, 4.330e-7
0.052, 4.363e-7
0.056, 4.401e-7
0.060, 4.435e-7
0.064, 4.471e-7
0.068, 4.505e-7
0.072, 4.542e-7
0.076, 4.570e-7
0.080, 4.602e-7
0.084, 4.638e-7
0.088, 4.675e-7
0.092, 4.706e-7
0.096, 4.739e-7
0.100, 4.770e-7
0.104, 4.806e-7
0.108, 4.835e-7
0.112, 4.868e-7
0.116, 4.901e-7
0.120, 4.937e-7
0.124, 4.969e-7
0.128, 5.002e-7
0.132, 5.034e-7
0.136, 5.067e-7
0.140, 5.095e-7
0.144, 5.128e-7
0.148, 5.161e-7
0.152, 5.194e-7
0.156, 5.223e-7
0.160, 5.254e-7
0.164, 5.284e-7
0.168, 5.319e-7
0.172, 5.348e-7
0.176, 5.380e-7
0.180, 5.411e-7
0.184, 5.443e-7
0.188, 5.474e-7
0.192, 5.507e-7
0.196, 5.536e-7
0.199, 5.550e-7