Folder: graphene-production/data/derived_data/raman/20170920_Gr-NH2_for_Radisurf/20170920 Gr-NH for Radisurf map 2 (part 5)

File: Dp FWHM.txt
#XList		#YList		#IList
-39.3414	-21.065	10.8672
-30.3414	-21.065	24.2239
-21.3414	-21.065	23.9123
-12.3414	-21.065	41.3714
-3.341423	-21.065	0.639823
5.658577	-21.065	30.4129
14.6586	-21.065	19.6452
23.6586	-21.065	1.030707
-32.3414	-20.065	21.5192
-23.3414	-20.065	16.2857
-14.3414	-20.065	39.7848
-5.341423	-20.065	16.3915
3.658577	-20.065	19.6
12.6586	-20.065	16.5289
21.6586	-20.065	26.1546
-34.3414	-19.065	16.1888
-25.3414	-19.065	21.5203
-16.3414	-19.065	37.4528
-7.341423	-19.065	14.9372
1.658577	-19.065	16.0259
10.6586	-19.065	83.9702
19.6586	-19.065	22.6379
-36.3414	-18.065	16.6186
-27.3414	-18.065	16.7111
-18.3414	-18.065	29.0918
-9.341423	-18.065	161.333
-0.341423	-18.065	15.5022
8.658577	-18.065	37.1215
17.6586	-18.065	16.9179
-38.3414	-17.065	26.8907
-29.3414	-17.065	43.1009
-20.3414	-17.065	30.964
-11.3414	-17.065	26.062
-2.341423	-17.065	14.9306
6.658577	-17.065	20.743
15.6586	-17.065	29.57
24.6586	-17.065	31.7282
-31.3414	-16.065	40.9229
-22.3414	-16.065	18.7895
-13.3414	-16.065	37.5022
-4.341423	-16.065	19.9839
4.658577	-16.065	20.9441
13.6586	-16.065	20.2135
22.6586	-16.065	29.5244
-33.3414	-15.065	34.6306
-24.3414	-15.065	42.8744
-15.3414	-15.065	39.6601
-6.341423	-15.065	19.1238
2.658577	-15.065	17.5526
11.6586	-15.065	29.6614
20.6586	-15.065	21.2265
-35.3414	-14.065	35.2303
-26.3414	-14.065	30.8006
-17.3414	-14.065	28.1952
-8.341423	-14.065	14.03
0.658577	-14.065	19.2091
9.658577	-14.065	39.4681
18.6586	-14.065	18.5674
-37.3414	-13.065	35.0861
-28.3414	-13.065	43.5923
-19.3414	-13.065	16.0265
-10.3414	-13.065	9.373230
-1.341423	-13.065	22.7344
7.658577	-13.065	38.8469
16.6586	-13.065	33.7489
-39.3414	-12.065	38.8509
-30.3414	-12.065	36.3001
-21.3414	-12.065	17.8343
-12.3414	-12.065	15.5459
-3.341423	-12.065	19.6221
5.658577	-12.065	19.144
14.6586	-12.065	17.004
23.6586	-12.065	18.6799
-32.3414	-11.065	36.2365
-23.3414	-11.065	26.5551
-14.3414	-11.065	26.7255
-5.341423	-11.065	17.3227
3.658577	-11.065	45.3895
12.6586	-11.065	19.8309
21.6586	-11.065	60.3219
-34.3414	-10.065	36.4992
-25.3414	-10.065	35.2141
-16.3414	-10.065	10.8745
-7.341423	-10.065	21.1427
1.658577	-10.065	17.6567
10.6586	-10.065	22.8841
19.6586	-10.065	0.639823
-36.3414	-9.065000	34.7085
-27.3414	-9.065000	36.4875
-18.3414	-9.065000	9.547200
-9.341423	-9.065000	35.9393
-0.341423	-9.065000	22.5895
8.658577	-9.065000	7.923434
17.6586	-9.065000	16.6297
-38.3414	-8.065000	37.3406
-29.3414	-8.065000	37.1027
-20.3414	-8.065000	74.5216
-11.3414	-8.065000	42.93
-2.341423	-8.065000	10.5101
6.658577	-8.065000	39.7615
15.6586	-8.065000	25.3373
24.6586	-8.065000	1.445646
-31.3414	-7.065000	34.9573
-22.3414	-7.065000	11.4404
-13.3414	-7.065000	40.427
-4.341423	-7.065000	23.7935
4.658577	-7.065000	14.7692
13.6586	-7.065000	34.3653
22.6586	-7.065000	15.8759
-33.3414	-6.065000	34.4798
-24.3414	-6.065000	34.5559
-15.3414	-6.065000	38.0513
-6.341423	-6.065000	35.7969
2.658577	-6.065000	29.3494
11.6586	-6.065000	25.7767
20.6586	-6.065000	27.3704
-35.3414	-5.065000	38.8362
-26.3414	-5.065000	27.6951
-17.3414	-5.065000	30.3024
-8.341423	-5.065000	38.456
0.658577	-5.065000	19.7652
9.658577	-5.065000	30.3809
18.6586	-5.065000	18.583
-37.3414	-4.065000	15.2226
-28.3414	-4.065000	38.2016
-19.3414	-4.065000	36.5894
-10.3414	-4.065000	164.958
-1.341423	-4.065000	33.968
7.658577	-4.065000	32.5039
16.6586	-4.065000	30.0706
-39.3414	-3.065000	0.639823
-30.3414	-3.065000	32.9858
-21.3414	-3.065000	21.3641
-12.3414	-3.065000	255.375
-3.341423	-3.065000	20.8023
5.658577	-3.065000	22.2291
14.6586	-3.065000	33.0126
23.6586	-3.065000	13.6746
-32.3414	-2.065000	2.058521
-23.3414	-2.065000	1.180977
-14.3414	-2.065000	36.8682
-5.341423	-2.065000	17.4311
3.658577	-2.065000	33.8672
12.6586	-2.065000	21.1367
21.6586	-2.065000	0.639823
-34.3414	-1.065000	21.2495
-25.3414	-1.065000	41.2249
-16.3414	-1.065000	19.3491
-7.341423	-1.065000	13.6911
1.658577	-1.065000	32.1207
10.6586	-1.065000	14.4509
19.6586	-1.065000	17.5935
-36.3414	-0.065000	32.9499
-27.3414	-0.065000	23.2578
-18.3414	-0.065000	22.6197
-9.341423	-0.065000	15.9824
-0.341423	-0.065000	39.4261
8.658577	-0.065000	39.0672
17.6586	-0.065000	17.2893
-38.3414	0.935000	18.4712
-29.3414	0.935000	4.669631
-20.3414	0.935000	37.313
-11.3414	0.935000	38.2309
-2.341423	0.935000	25.5308
6.658577	0.935000	24.9484
15.6586	0.935000	32.3572
24.6586	0.935000	12.515
-31.3414	1.935000	13.7729
-22.3414	1.935000	40.7118
-13.3414	1.935000	36.444
-4.341423	1.935000	37.6597
4.658577	1.935000	20.5495
13.6586	1.935000	28.7229
22.6586	1.935000	37.3173
-33.3414	2.935000	20.115
-24.3414	2.935000	37.9777
-15.3414	2.935000	33.0023
-6.341423	2.935000	17.4596
2.658577	2.935000	17.0086
11.6586	2.935000	1.691890
20.6586	2.935000	28.0387
-35.3414	3.935000	16.3368
-26.3414	3.935000	22.5768
-17.3414	3.935000	39.3085
-8.341423	3.935000	21.9067
0.658577	3.935000	38.5516
9.658577	3.935000	38.8426
18.6586	3.935000	37.9874
-37.3414	4.935000	32.1562
-28.3414	4.935000	27.1162
-19.3414	4.935000	39.2489
-10.3414	4.935000	14.2327
-1.341423	4.935000	38.642
7.658577	4.935000	21.9894
16.6586	4.935000	24.3766
-39.3414	5.935000	35.8255
-30.3414	5.935000	16.8135
-21.3414	5.935000	18.2216
-12.3414	5.935000	40.3581
-3.341423	5.935000	38.6277
5.658577	5.935000	20.9147
14.6586	5.935000	25.0103
23.6586	5.935000	40.1045
-32.3414	6.935000	37.0102
-23.3414	6.935000	17.234
-14.3414	6.935000	38.839
-5.341423	6.935000	19.4897
3.658577	6.935000	21.7169
12.6586	6.935000	31.4599
21.6586	6.935000	35.7876
-34.3414	7.935000	38.398
-25.3414	7.935000	19.7104
-16.3414	7.935000	31.1487
-7.341423	7.935000	13.3542
1.658577	7.935000	25.9288
10.6586	7.935000	27.4861
19.6586	7.935000	38.1552
-36.3414	8.935000	36.0671
-27.3414	8.935000	17.9297
-18.3414	8.935000	24.6486
-9.341423	8.935000	12.669
-0.341423	8.935000	39.4842
8.658577	8.935000	25.6751
17.6586	8.935000	29.9987
-38.3414	9.935000	34.2491
-29.3414	9.935000	154.928
-20.3414	9.935000	21.3333
-11.3414	9.935000	13.2878
-2.341423	9.935000	26.8814
6.658577	9.935000	36.5378
15.6586	9.935000	0.639823
24.6586	9.935000	41.2959
-31.3414	10.935	35.4258
-22.3414	10.935	24.9723
-13.3414	10.935	28.6316
-4.341423	10.935	40.8392
4.658577	10.935	33.4759
13.6586	10.935	17.4717
22.6586	10.935	40.0528
-33.3414	11.935	112.714
-24.3414	11.935	16.1357
-15.3414	11.935	84.0092
-6.341423	11.935	18.1376
2.658577	11.935	18.1303
11.6586	11.935	19.9416
20.6586	11.935	22.8206
-35.3414	12.935	38.584
-26.3414	12.935	11.987
-17.3414	12.935	13.6539
-8.341423	12.935	19.2445
0.658577	12.935	23.1142
9.658577	12.935	5.494329
18.6586	12.935	0.639823
-37.3414	13.935	39.9289
-28.3414	13.935	16.8824
-19.3414	13.935	41.6745
-10.3414	13.935	30.9005
-1.341423	13.935	17.4315
7.658577	13.935	40.9111
16.6586	13.935	63.7573
-39.3414	14.935	35.4185
-30.3414	14.935	38.0467
-21.3414	14.935	34.1268
-12.3414	14.935	41.4017
-3.341423	14.935	30.0846
5.658577	14.935	30.3986
14.6586	14.935	0.762961
23.6586	14.935	22.15
-32.3414	15.935	35.2789
-23.3414	15.935	5.298223
-14.3414	15.935	38.4489
-5.341423	15.935	21.7253
3.658577	15.935	28.7531
12.6586	15.935	32.6557
21.6586	15.935	56.2311
24.6586	15.935	3.158348

File: Dp int.txt
#XList		#YList		#IList
-39.3414	-21.065	48.5242
-30.3414	-21.065	337.44
-21.3414	-21.065	102.964
-12.3414	-21.065	695.346
-3.341423	-21.065	7.391188
5.658577	-21.065	49.2658
14.6586	-21.065	245.542
23.6586	-21.065	1.184633
-32.3414	-20.065	304.633
-23.3414	-20.065	46.7946
-14.3414	-20.065	735.609
-5.341423	-20.065	133.208
3.658577	-20.065	49.6575
12.6586	-20.065	185.549
21.6586	-20.065	160.388
-34.3414	-19.065	12.0666
-25.3414	-19.065	186.57
-16.3414	-19.065	947.162
-7.341423	-19.065	186.556
1.658577	-19.065	38.6881
10.6586	-19.065	107.19
19.6586	-19.065	221.103
-36.3414	-18.065	84.7333
-27.3414	-18.065	172.739
-18.3414	-18.065	223.379
-9.341423	-18.065	0.000000
-0.341423	-18.065	80.8433
8.658577	-18.065	693.245
17.6586	-18.065	152.34
-38.3414	-17.065	293.156
-29.3414	-17.065	390.518
-20.3414	-17.065	83.5019
-11.3414	-17.065	320.715
-2.341423	-17.065	63.1049
6.658577	-17.065	185.676
15.6586	-17.065	434.05
24.6586	-17.065	424.023
-31.3414	-16.065	391.728
-22.3414	-16.065	202.788
-13.3414	-16.065	878.31
-4.341423	-16.065	149.81
4.658577	-16.065	52.2265
13.6586	-16.065	50.0379
22.6586	-16.065	203.654
-33.3414	-15.065	708.518
-24.3414	-15.065	399.673
-15.3414	-15.065	696.151
-6.341423	-15.065	117.893
2.658577	-15.065	71.1203
11.6586	-15.065	395.179
20.6586	-15.065	55.5471
-35.3414	-14.065	629.995
-26.3414	-14.065	286.69
-17.3414	-14.065	165.401
-8.341423	-14.065	44.0519
0.658577	-14.065	152.004
9.658577	-14.065	473.943
18.6586	-14.065	34.3548
-37.3414	-13.065	723.084
-28.3414	-13.065	416.863
-19.3414	-13.065	96.7198
-10.3414	-13.065	88.8325
-1.341423	-13.065	102.764
7.658577	-13.065	655.024
16.6586	-13.065	138.307
-39.3414	-12.065	566.824
-30.3414	-12.065	521.202
-21.3414	-12.065	58.4328
-12.3414	-12.065	144.491
-3.341423	-12.065	122.686
5.658577	-12.065	52.6009
14.6586	-12.065	118.652
23.6586	-12.065	131.578
-32.3414	-11.065	511.023
-23.3414	-11.065	197.604
-14.3414	-11.065	80.6709
-5.341423	-11.065	69.8886
3.658577	-11.065	33.7843
12.6586	-11.065	12.8526
21.6586	-11.065	58.7285
-34.3414	-10.065	576.785
-25.3414	-10.065	446.517
-16.3414	-10.065	83.3039
-7.341423	-10.065	24.3719
1.658577	-10.065	132.203
10.6586	-10.065	2.539633
19.6586	-10.065	0.000000
-36.3414	-9.065000	567.974
-27.3414	-9.065000	659.508
-18.3414	-9.065000	30.4143
-9.341423	-9.065000	189.357
-0.341423	-9.065000	147.689
8.658577	-9.065000	12.1823
17.6586	-9.065000	109.382
-38.3414	-8.065000	481.075
-29.3414	-8.065000	548.774
-20.3414	-8.065000	108.89
-11.3414	-8.065000	478.13
-2.341423	-8.065000	21.9934
6.658577	-8.065000	471.79
15.6586	-8.065000	152.069
24.6586	-8.065000	0.000000
-31.3414	-7.065000	592.907
-22.3414	-7.065000	41.4483
-13.3414	-7.065000	347.307
-4.341423	-7.065000	11.2173
4.658577	-7.065000	129.268
13.6586	-7.065000	385.267
22.6586	-7.065000	99.3329
-33.3414	-6.065000	660.857
-24.3414	-6.065000	685.417
-15.3414	-6.065000	624.497
-6.341423	-6.065000	259.174
2.658577	-6.065000	109.608
11.6586	-6.065000	190.893
20.6586	-6.065000	85.5086
-35.3414	-5.065000	482.693
-26.3414	-5.065000	300.98
-17.3414	-5.065000	13.4823
-8.341423	-5.065000	484.02
0.658577	-5.065000	117.569
9.658577	-5.065000	71.3182
18.6586	-5.065000	103.846
-37.3414	-4.065000	189.26
-28.3414	-4.065000	323.523
-19.3414	-4.065000	216.195
-10.3414	-4.065000	0.000000
-1.341423	-4.065000	39.1693
7.658577	-4.065000	421.391
16.6586	-4.065000	253.723
-39.3414	-3.065000	11.3613
-30.3414	-3.065000	715.48
-21.3414	-3.065000	297.344
-12.3414	-3.065000	0.000000
-3.341423	-3.065000	43.3887
5.658577	-3.065000	136.147
14.6586	-3.065000	688.894
23.6586	-3.065000	55.2352
-32.3414	-2.065000	8.120141
-23.3414	-2.065000	174.003
-14.3414	-2.065000	604.245
-5.341423	-2.065000	168.951
3.658577	-2.065000	182.665
12.6586	-2.065000	238.368
21.6586	-2.065000	4.753697
-34.3414	-1.065000	32.0478
-25.3414	-1.065000	535.153
-16.3414	-1.065000	124.875
-7.341423	-1.065000	86.2164
1.658577	-1.065000	651.651
10.6586	-1.065000	150.37
19.6586	-1.065000	180.423
-36.3414	-0.065000	12.2912
-27.3414	-0.065000	5.164780
-18.3414	-0.065000	238.574
-9.341423	-0.065000	63.0705
-0.341423	-0.065000	777.696
8.658577	-0.065000	365.88
17.6586	-0.065000	149.723
-38.3414	0.935000	6.411115
-29.3414	0.935000	6.145000
-20.3414	0.935000	224.87
-11.3414	0.935000	488.637
-2.341423	0.935000	399.438
6.658577	0.935000	375.066
15.6586	0.935000	293.458
24.6586	0.935000	73.318
-31.3414	1.935000	155.711
-22.3414	1.935000	556.211
-13.3414	1.935000	782.012
-4.341423	1.935000	724.116
4.658577	1.935000	65.7529
13.6586	1.935000	520.909
22.6586	1.935000	578.638
-33.3414	2.935000	61.6952
-24.3414	2.935000	0.000000
-15.3414	2.935000	6.721104
-6.341423	2.935000	174.016
2.658577	2.935000	152.181
11.6586	2.935000	0.000000
20.6586	2.935000	94.2918
-35.3414	3.935000	166.86
-26.3414	3.935000	354.029
-17.3414	3.935000	430.04
-8.341423	3.935000	96.9679
0.658577	3.935000	792.043
9.658577	3.935000	743.305
18.6586	3.935000	749.52
-37.3414	4.935000	641.285
-28.3414	4.935000	163.582
-19.3414	4.935000	598.135
-10.3414	4.935000	155.588
-1.341423	4.935000	673.988
7.658577	4.935000	267.255
16.6586	4.935000	352.472
-39.3414	5.935000	770.575
-30.3414	5.935000	14.786
-21.3414	5.935000	34.1559
-12.3414	5.935000	125.083
-3.341423	5.935000	563.431
5.658577	5.935000	122.168
14.6586	5.935000	410.889
23.6586	5.935000	344.541
-32.3414	6.935000	521.698
-23.3414	6.935000	84.5243
-14.3414	6.935000	489.388
-5.341423	6.935000	96.4997
3.658577	6.935000	46.1935
12.6586	6.935000	552.386
21.6586	6.935000	821.532
-34.3414	7.935000	554.232
-25.3414	7.935000	214.129
-16.3414	7.935000	423.269
-7.341423	7.935000	101.07
1.658577	7.935000	429.129
10.6586	7.935000	416.651
19.6586	7.935000	16.5388
-36.3414	8.935000	582.367
-27.3414	8.935000	200.125
-18.3414	8.935000	216.492
-9.341423	8.935000	91.9328
-0.341423	8.935000	791.466
8.658577	8.935000	101.578
17.6586	8.935000	466.672
-38.3414	9.935000	496.895
-29.3414	9.935000	0.000000
-20.3414	9.935000	183.53
-11.3414	9.935000	55.45
-2.341423	9.935000	307.811
6.658577	9.935000	46.5948
15.6586	9.935000	25.645
24.6586	9.935000	18.5195
-31.3414	10.935	767.412
-22.3414	10.935	219.536
-13.3414	10.935	399.413
-4.341423	10.935	692.906
4.658577	10.935	83.6685
13.6586	10.935	19.7604
22.6586	10.935	333.052
-33.3414	11.935	0.000000
-24.3414	11.935	10.9929
-15.3414	11.935	0.000000
-6.341423	11.935	135.475
2.658577	11.935	113.913
11.6586	11.935	195.114
20.6586	11.935	50.1015
-35.3414	12.935	571.131
-26.3414	12.935	39.5772
-17.3414	12.935	148.154
-8.341423	12.935	107.1
0.658577	12.935	258.72
9.658577	12.935	56.0122
18.6586	12.935	8.190636
-37.3414	13.935	650.37
-28.3414	13.935	165.159
-19.3414	13.935	375.944
-10.3414	13.935	48.8385
-1.341423	13.935	129.312
7.658577	13.935	602.268
16.6586	13.935	6.333269
-39.3414	14.935	761.302
-30.3414	14.935	489.669
-21.3414	14.935	492.152
-12.3414	14.935	477.68
-3.341423	14.935	187.411
5.658577	14.935	83.1031
14.6586	14.935	10.024
23.6586	14.935	12.2941
-32.3414	15.935	582.537
-23.3414	15.935	19.1432
-14.3414	15.935	803.651
-5.341423	15.935	49.943
3.658577	15.935	142.641
12.6586	15.935	231.252
21.6586	15.935	1.302569
24.6586	15.935	0.000000

File: Dp pos.txt
#XList		#YList		#IList
-39.3414	-21.065	1620.64
-30.3414	-21.065	1610.69
-21.3414	-21.065	1611.61
-12.3414	-21.065	1600
-3.341423	-21.065	1604.56
5.658577	-21.065	1613.6
14.6586	-21.065	1615.79
23.6586	-21.065	1602.16
-32.3414	-20.065	1611.8
-23.3414	-20.065	1618.54
-14.3414	-20.065	1600.88
-5.341423	-20.065	1618.47
3.658577	-20.065	1616.99
12.6586	-20.065	1618.43
21.6586	-20.065	1612.19
-34.3414	-19.065	1619.49
-25.3414	-19.065	1613.69
-16.3414	-19.065	1601.31
-7.341423	-19.065	1618.85
1.658577	-19.065	1616.53
10.6586	-19.065	1600
19.6586	-19.065	1614.27
-36.3414	-18.065	1616.92
-27.3414	-18.065	1616.1
-18.3414	-18.065	1609.64
-9.341423	-18.065	1600
-0.341423	-18.065	1615.59
8.658577	-18.065	1604.49
17.6586	-18.065	1614.88
-38.3414	-17.065	1610.25
-29.3414	-17.065	1600
-20.3414	-17.065	1610.14
-11.3414	-17.065	1610.54
-2.341423	-17.065	1617.28
6.658577	-17.065	1612.77
15.6586	-17.065	1609.78
24.6586	-17.065	1607.47
-31.3414	-16.065	1600
-22.3414	-16.065	1616.15
-13.3414	-16.065	1602.61
-4.341423	-16.065	1614.41
4.658577	-16.065	1616.45
13.6586	-16.065	1612.85
22.6586	-16.065	1609.71
-33.3414	-15.065	1603.88
-24.3414	-15.065	1600
-15.3414	-15.065	1600
-6.341423	-15.065	1617.13
2.658577	-15.065	1615.71
11.6586	-15.065	1608.61
20.6586	-15.065	1614.82
-35.3414	-14.065	1603.66
-26.3414	-14.065	1608.94
-17.3414	-14.065	1610.33
-8.341423	-14.065	1621.04
0.658577	-14.065	1616.15
9.658577	-14.065	1602.62
18.6586	-14.065	1617.65
-37.3414	-13.065	1603.9
-28.3414	-13.065	1600
-19.3414	-13.065	1616.29
-10.3414	-13.065	1622.09
-1.341423	-13.065	1611.71
7.658577	-13.065	1603.78
16.6586	-13.065	1607.36
-39.3414	-12.065	1601.85
-30.3414	-12.065	1602.09
-21.3414	-12.065	1617.6
-12.3414	-12.065	1618.83
-3.341423	-12.065	1613.37
5.658577	-12.065	1617.99
14.6586	-12.065	1619.09
23.6586	-12.065	1614.68
-32.3414	-11.065	1601.93
-23.3414	-11.065	1611.46
-14.3414	-11.065	1609.24
-5.341423	-11.065	1614.23
3.658577	-11.065	1609.98
12.6586	-11.065	1616.76
21.6586	-11.065	1600
-34.3414	-10.065	1601.51
-25.3414	-10.065	1605.48
-16.3414	-10.065	1618.67
-7.341423	-10.065	1617.19
1.658577	-10.065	1616.19
10.6586	-10.065	1611.65
19.6586	-10.065	1600
-36.3414	-9.065000	1603.88
-27.3414	-9.065000	1603.13
-18.3414	-9.065000	1618.05
-9.341423	-9.065000	1605.33
-0.341423	-9.065000	1613.84
8.658577	-9.065000	1617.63
17.6586	-9.065000	1618.42
-38.3414	-8.065000	1601.47
-29.3414	-8.065000	1600.28
-20.3414	-8.065000	1600
-11.3414	-8.065000	1600
-2.341423	-8.065000	1619.32
6.658577	-8.065000	1603.52
15.6586	-8.065000	1612.48
24.6586	-8.065000	1602.25
-31.3414	-7.065000	1604.63
-22.3414	-7.065000	1618.72
-13.3414	-7.065000	1600
-4.341423	-7.065000	1621.26
4.658577	-7.065000	1617.44
13.6586	-7.065000	1606.52
22.6586	-7.065000	1616.63
-33.3414	-6.065000	1603.64
-24.3414	-6.065000	1606
-15.3414	-6.065000	1602
-6.341423	-6.065000	1603.84
2.658577	-6.065000	1612.38
11.6586	-6.065000	1612.8
20.6586	-6.065000	1614.78
-35.3414	-5.065000	1602.19
-26.3414	-5.065000	1609.64
-17.3414	-5.065000	1611.36
-8.341423	-5.065000	1602.27
0.658577	-5.065000	1615.32
9.658577	-5.065000	1611.46
18.6586	-5.065000	1616.92
-37.3414	-4.065000	1616.57
-28.3414	-4.065000	1604.02
-19.3414	-4.065000	1605.99
-10.3414	-4.065000	1619.42
-1.341423	-4.065000	1607.57
7.658577	-4.065000	1607.43
16.6586	-4.065000	1610.3
-39.3414	-3.065000	1623.46
-30.3414	-3.065000	1606.77
-21.3414	-3.065000	1614.36
-12.3414	-3.065000	1616.38
-3.341423	-3.065000	1611.54
5.658577	-3.065000	1616.46
14.6586	-3.065000	1607.16
23.6586	-3.065000	1621.08
-32.3414	-2.065000	1618.75
-23.3414	-2.065000	1600.51
-14.3414	-2.065000	1603.23
-5.341423	-2.065000	1613.78
3.658577	-2.065000	1607.08
12.6586	-2.065000	1613.65
21.6586	-2.065000	1610.84
-34.3414	-1.065000	1618.02
-25.3414	-1.065000	1600
-16.3414	-1.065000	1617.49
-7.341423	-1.065000	1615.94
1.658577	-1.065000	1607.76
10.6586	-1.065000	1619.49
19.6586	-1.065000	1615.43
-36.3414	-0.065000	1617.45
-27.3414	-0.065000	1616.7
-18.3414	-0.065000	1613.38
-9.341423	-0.065000	1615.8
-0.341423	-0.065000	1602.62
8.658577	-0.065000	1603.53
17.6586	-0.065000	1615.71
-38.3414	0.935000	1617.03
-29.3414	0.935000	1622.59
-20.3414	0.935000	1603.67
-11.3414	0.935000	1601.41
-2.341423	0.935000	1610.13
6.658577	0.935000	1610.07
15.6586	0.935000	1608.1
24.6586	0.935000	1621.46
-31.3414	1.935000	1619.34
-22.3414	1.935000	1600
-13.3414	1.935000	1604.29
-4.341423	1.935000	1603.93
4.658577	1.935000	1619.32
13.6586	1.935000	1608.83
22.6586	1.935000	1604.37
-33.3414	2.935000	1615.79
-24.3414	2.935000	1625.79
-15.3414	2.935000	1619.15
-6.341423	2.935000	1614.63
2.658577	2.935000	1617.9
11.6586	2.935000	1600
20.6586	2.935000	1608.59
-35.3414	3.935000	1616.36
-26.3414	3.935000	1612.73
-17.3414	3.935000	1600.4
-8.341423	3.935000	1615.72
0.658577	3.935000	1603.25
9.658577	3.935000	1603.21
18.6586	3.935000	1604.3
-37.3414	4.935000	1606.82
-28.3414	4.935000	1612.03
-19.3414	4.935000	1600
-10.3414	4.935000	1617.65
-1.341423	4.935000	1600.33
7.658577	4.935000	1613.86
16.6586	4.935000	1612.87
-39.3414	5.935000	1604.23
-30.3414	5.935000	1611.65
-21.3414	5.935000	1615.63
-12.3414	5.935000	1603.01
-3.341423	5.935000	1604.87
5.658577	5.935000	1613.73
14.6586	5.935000	1611.44
23.6586	5.935000	1600
-32.3414	6.935000	1602.18
-23.3414	6.935000	1613.84
-14.3414	6.935000	1601.53
-5.341423	6.935000	1613.13
3.658577	6.935000	1611.19
12.6586	6.935000	1608.19
21.6586	6.935000	1605.78
-34.3414	7.935000	1601.3
-25.3414	7.935000	1615.64
-16.3414	7.935000	1608.63
-7.341423	7.935000	1619.53
1.658577	7.935000	1610.98
10.6586	7.935000	1611.08
19.6586	7.935000	1612.44
-36.3414	8.935000	1602.31
-27.3414	8.935000	1617.06
-18.3414	8.935000	1613.13
-9.341423	8.935000	1621.46
-0.341423	8.935000	1602.81
8.658577	8.935000	1616.99
17.6586	8.935000	1608.22
-38.3414	9.935000	1603.59
-29.3414	9.935000	1625.26
-20.3414	9.935000	1614.21
-11.3414	9.935000	1617.74
-2.341423	9.935000	1611.59
6.658577	9.935000	1612.85
15.6586	9.935000	1618.95
24.6586	9.935000	1600
-31.3414	10.935	1604.11
-22.3414	10.935	1612.95
-13.3414	10.935	1609.52
-4.341423	10.935	1600
4.658577	10.935	1613.72
13.6586	10.935	1613.99
22.6586	10.935	1603.04
-33.3414	11.935	1612.83
-24.3414	11.935	1617.53
-15.3414	11.935	1612.85
-6.341423	11.935	1617.41
2.658577	11.935	1617.69
11.6586	11.935	1614.85
20.6586	11.935	1614.96
-35.3414	12.935	1601.2
-26.3414	12.935	1619.79
-17.3414	12.935	1620.61
-8.341423	12.935	1617.24
0.658577	12.935	1612.2
9.658577	12.935	1600.75
18.6586	12.935	1632.48
-37.3414	13.935	1601.28
-28.3414	13.935	1617.7
-19.3414	13.935	1600
-10.3414	13.935	1608.89
-1.341423	13.935	1615.13
7.658577	13.935	1600.57
16.6586	13.935	1623.4
-39.3414	14.935	1604.04
-30.3414	14.935	1603.59
-21.3414	14.935	1606.8
-12.3414	14.935	1601.05
-3.341423	14.935	1608.64
5.658577	14.935	1609.93
14.6586	14.935	1618.55
23.6586	14.935	1636.97
-32.3414	15.935	1605.22
-23.3414	15.935	1621.93
-14.3414	15.935	1603.29
-5.341423	15.935	1615.64
3.658577	15.935	1610.94
12.6586	15.935	1609.05
21.6586	15.935	1640
24.6586	15.935	1618.68