Folder: graphene-production/data/derived_data/raman/20170920_Gr-NH2_for_Radisurf/20170920 Gr-NH for Radisurf map 2 (part 7)

File: SiO2 FWHM.txt
#XList		#YList		#IList
-39.3414	-21.065	33.5153
-30.3414	-21.065	0.639823
-21.3414	-21.065	48.9347
-12.3414	-21.065	0.639823
-3.341423	-21.065	57.3499
5.658577	-21.065	38.1272
14.6586	-21.065	7.568366
23.6586	-21.065	55.8696
-32.3414	-20.065	0.639823
-23.3414	-20.065	48.3765
-14.3414	-20.065	0.639823
-5.341423	-20.065	29.4425
3.658577	-20.065	0.645568
12.6586	-20.065	25.6749
21.6586	-20.065	40.1449
-34.3414	-19.065	56.8387
-25.3414	-19.065	0.639823
-16.3414	-19.065	0.639823
-7.341423	-19.065	19.8217
1.658577	-19.065	0.639823
10.6586	-19.065	30.4133
19.6586	-19.065	4.096681
-36.3414	-18.065	28.3811
-27.3414	-18.065	15.9263
-18.3414	-18.065	0.822430
-9.341423	-18.065	11.3791
-0.341423	-18.065	31.2159
8.658577	-18.065	0.639823
17.6586	-18.065	0.796696
-38.3414	-17.065	0.639823
-29.3414	-17.065	14.2589
-20.3414	-17.065	51.9323
-11.3414	-17.065	0.639823
-2.341423	-17.065	33.5049
6.658577	-17.065	1.374084
15.6586	-17.065	0.639823
24.6586	-17.065	0.646433
-31.3414	-16.065	10.1436
-22.3414	-16.065	0.639823
-13.3414	-16.065	0.639823
-4.341423	-16.065	0.639823
4.658577	-16.065	48.8372
13.6586	-16.065	47.4593
22.6586	-16.065	38.4309
-33.3414	-15.065	0.639823
-24.3414	-15.065	10.7173
-15.3414	-15.065	0.639823
-6.341423	-15.065	0.639823
2.658577	-15.065	29.8735
11.6586	-15.065	0.639823
20.6586	-15.065	50.634
-35.3414	-14.065	0.639823
-26.3414	-14.065	5.450886
-17.3414	-14.065	45.7127
-8.341423	-14.065	37.2578
0.658577	-14.065	16.4084
9.658577	-14.065	0.639823
18.6586	-14.065	49.0689
-37.3414	-13.065	0.639823
-28.3414	-13.065	10.0152
-19.3414	-13.065	60.782
-10.3414	-13.065	26.134
-1.341423	-13.065	33.1499
7.658577	-13.065	0.639823
16.6586	-13.065	43.4653
-39.3414	-12.065	0.647884
-30.3414	-12.065	0.639823
-21.3414	-12.065	0.639823
-12.3414	-12.065	30.488
-3.341423	-12.065	24.5501
5.658577	-12.065	38.3297
14.6586	-12.065	5.859589
23.6586	-12.065	13.2844
-32.3414	-11.065	0.639823
-23.3414	-11.065	12.4918
-14.3414	-11.065	46.3405
-5.341423	-11.065	37.7927
3.658577	-11.065	47.8161
12.6586	-11.065	55.3244
21.6586	-11.065	42.9347
-34.3414	-10.065	0.639823
-25.3414	-10.065	0.639823
-16.3414	-10.065	25.1069
-7.341423	-10.065	0.894499
1.658577	-10.065	21.6011
10.6586	-10.065	59.8709
19.6586	-10.065	0.639823
-36.3414	-9.065000	0.639823
-27.3414	-9.065000	0.639823
-18.3414	-9.065000	47.6367
-9.341423	-9.065000	0.802718
-0.341423	-9.065000	19.5727
8.658577	-9.065000	52.8654
17.6586	-9.065000	0.639823
-38.3414	-8.065000	0.639823
-29.3414	-8.065000	0.639823
-20.3414	-8.065000	41.1677
-11.3414	-8.065000	0.639823
-2.341423	-8.065000	38.3261
6.658577	-8.065000	47.583
15.6586	-8.065000	37.3453
24.6586	-8.065000	54.2644
-31.3414	-7.065000	0.639823
-22.3414	-7.065000	52.438
-13.3414	-7.065000	15.0027
-4.341423	-7.065000	59.8423
4.658577	-7.065000	5.153769
13.6586	-7.065000	29.681
22.6586	-7.065000	0.700343
-33.3414	-6.065000	0.639823
-24.3414	-6.065000	0.639823
-15.3414	-6.065000	0.639823
-6.341423	-6.065000	29.5128
2.658577	-6.065000	44.9536
11.6586	-6.065000	13.3824
20.6586	-6.065000	22.907
-35.3414	-5.065000	0.639823
-26.3414	-5.065000	0.639823
-17.3414	-5.065000	53.1698
-8.341423	-5.065000	0.639823
0.658577	-5.065000	45.8949
9.658577	-5.065000	48.1472
18.6586	-5.065000	0.669448
-37.3414	-4.065000	0.645203
-28.3414	-4.065000	38.8425
-19.3414	-4.065000	42.4925
-10.3414	-4.065000	0.639823
-1.341423	-4.065000	52.3442
7.658577	-4.065000	36.77
16.6586	-4.065000	37.775
-39.3414	-3.065000	64.7293
-30.3414	-3.065000	0.639823
-21.3414	-3.065000	0.639823
-12.3414	-3.065000	11.0256
-3.341423	-3.065000	55.8933
5.658577	-3.065000	51.7385
14.6586	-3.065000	0.823060
23.6586	-3.065000	24.901
-32.3414	-2.065000	57.2744
-23.3414	-2.065000	0.639823
-14.3414	-2.065000	0.639823
-5.341423	-2.065000	6.424792
3.658577	-2.065000	44.508
12.6586	-2.065000	0.639823
21.6586	-2.065000	58.2685
-34.3414	-1.065000	0.639823
-25.3414	-1.065000	0.639823
-16.3414	-1.065000	0.639823
-7.341423	-1.065000	28.9901
1.658577	-1.065000	0.639823
10.6586	-1.065000	37.4684
19.6586	-1.065000	7.563375
-36.3414	-0.065000	54.5237
-27.3414	-0.065000	58.7991
-18.3414	-0.065000	21.2955
-9.341423	-0.065000	29.5391
-0.341423	-0.065000	0.639823
8.658577	-0.065000	30.5938
17.6586	-0.065000	7.763026
-38.3414	0.935000	2206.37
-29.3414	0.935000	58.1528
-20.3414	0.935000	35.1359
-11.3414	0.935000	0.639823
-2.341423	0.935000	0.639823
6.658577	0.935000	0.639823
15.6586	0.935000	4.632663
24.6586	0.935000	0.672189
-31.3414	1.935000	27.3247
-22.3414	1.935000	0.639823
-13.3414	1.935000	0.639823
-4.341423	1.935000	0.639823
4.658577	1.935000	0.639823
13.6586	1.935000	0.639823
22.6586	1.935000	0.639823
-33.3414	2.935000	68.4477
-24.3414	2.935000	33.8998
-15.3414	2.935000	56.1752
-6.341423	2.935000	1.467579
2.658577	2.935000	7.906540
11.6586	2.935000	0.639823
20.6586	2.935000	44.7405
-35.3414	3.935000	46.9622
-26.3414	3.935000	0.639823
-17.3414	3.935000	1.121025
-8.341423	3.935000	0.639823
0.658577	3.935000	0.639823
9.658577	3.935000	0.639823
18.6586	3.935000	0.639823
-37.3414	4.935000	0.690599
-28.3414	4.935000	43.8839
-19.3414	4.935000	0.639823
-10.3414	4.935000	4.068151
-1.341423	4.935000	0.639823
7.658577	4.935000	0.639823
16.6586	4.935000	0.639823
-39.3414	5.935000	0.639823
-30.3414	5.935000	54.4398
-21.3414	5.935000	51.2262
-12.3414	5.935000	45.6966
-3.341423	5.935000	0.639823
5.658577	5.935000	45.6797
14.6586	5.935000	0.639823
23.6586	5.935000	12.9108
-32.3414	6.935000	0.639823
-23.3414	6.935000	1.772009
-14.3414	6.935000	0.639823
-5.341423	6.935000	45.0731
3.658577	6.935000	47.5623
12.6586	6.935000	0.639823
21.6586	6.935000	0.639823
-34.3414	7.935000	0.639823
-25.3414	7.935000	0.874527
-16.3414	7.935000	0.639823
-7.341423	7.935000	42.8214
1.658577	7.935000	0.703997
10.6586	7.935000	0.639823
19.6586	7.935000	56.6073
-36.3414	8.935000	0.639823
-27.3414	8.935000	36.3967
-18.3414	8.935000	0.639823
-9.341423	8.935000	1.575406
-0.341423	8.935000	0.639823
8.658577	8.935000	28.3553
17.6586	8.935000	0.639823
-38.3414	9.935000	0.639823
-29.3414	9.935000	0.639823
-20.3414	9.935000	0.743105
-11.3414	9.935000	28.0224
-2.341423	9.935000	2.156059
6.658577	9.935000	9.677874
15.6586	9.935000	61.6337
24.6586	9.935000	55.7612
-31.3414	10.935	0.639823
-22.3414	10.935	21.4074
-13.3414	10.935	0.639823
-4.341423	10.935	0.639823
4.658577	10.935	9.771516
13.6586	10.935	53.3693
22.6586	10.935	39.8149
-33.3414	11.935	8.393030
-24.3414	11.935	58.8368
-15.3414	11.935	0.639823
-6.341423	11.935	34.7994
2.658577	11.935	17.4251
11.6586	11.935	8.466153
20.6586	11.935	48.328
-35.3414	12.935	0.639823
-26.3414	12.935	50.1312
-17.3414	12.935	47.322
-8.341423	12.935	0.639823
0.658577	12.935	2.638464
9.658577	12.935	9.397612
18.6586	12.935	59.0556
-37.3414	13.935	0.639823
-28.3414	13.935	28.0575
-19.3414	13.935	8.596947
-10.3414	13.935	56.3481
-1.341423	13.935	30.2318
7.658577	13.935	0.639823
16.6586	13.935	60.7174
-39.3414	14.935	0.639823
-30.3414	14.935	0.639823
-21.3414	14.935	0.639823
-12.3414	14.935	0.639823
-3.341423	14.935	48.3922
5.658577	14.935	55.6871
14.6586	14.935	60.2933
23.6586	14.935	59.0725
-32.3414	15.935	0.639823
-23.3414	15.935	54.6744
-14.3414	15.935	0.639823
-5.341423	15.935	10.2317
3.658577	15.935	47.5969
12.6586	15.935	40.512
21.6586	15.935	61.2527
24.6586	15.935	57.337

File: SiO2 int.txt
#XList		#YList		#IList
-39.3414	-21.065	0.000000
-30.3414	-21.065	0.000000
-21.3414	-21.065	17.1198
-12.3414	-21.065	0.000000
-3.341423	-21.065	28.9203
5.658577	-21.065	8.132603
14.6586	-21.065	0.000000
23.6586	-21.065	33.5073
-32.3414	-20.065	0.000000
-23.3414	-20.065	26.4495
-14.3414	-20.065	0.000000
-5.341423	-20.065	6.562114
3.658577	-20.065	2.887646
12.6586	-20.065	8.571949
21.6586	-20.065	13.2872
-34.3414	-19.065	30.0421
-25.3414	-19.065	0.000000
-16.3414	-19.065	0.000000
-7.341423	-19.065	0.000000
1.658577	-19.065	0.000000
10.6586	-19.065	5.355343
19.6586	-19.065	0.000000
-36.3414	-18.065	0.000000
-27.3414	-18.065	0.000000
-18.3414	-18.065	97.4458
-9.341423	-18.065	0.000000
-0.341423	-18.065	0.000000
8.658577	-18.065	0.000000
17.6586	-18.065	11.7407
-38.3414	-17.065	0.000000
-29.3414	-17.065	0.000000
-20.3414	-17.065	22.702
-11.3414	-17.065	0.000000
-2.341423	-17.065	0.000000
6.658577	-17.065	88.2762
15.6586	-17.065	0.000000
24.6586	-17.065	16.9004
-31.3414	-16.065	0.000000
-22.3414	-16.065	0.000000
-13.3414	-16.065	0.000000
-4.341423	-16.065	0.000000
4.658577	-16.065	4.226327
13.6586	-16.065	28.8615
22.6586	-16.065	18.0542
-33.3414	-15.065	0.000000
-24.3414	-15.065	0.000000
-15.3414	-15.065	0.000000
-6.341423	-15.065	8.619762
2.658577	-15.065	0.000000
11.6586	-15.065	0.000000
20.6586	-15.065	29.4772
-35.3414	-14.065	0.000000
-26.3414	-14.065	0.000000
-17.3414	-14.065	21.8269
-8.341423	-14.065	0.000000
0.658577	-14.065	0.000000
9.658577	-14.065	0.000000
18.6586	-14.065	26.4111
-37.3414	-13.065	0.000000
-28.3414	-13.065	0.000000
-19.3414	-13.065	5.159335
-10.3414	-13.065	0.000000
-1.341423	-13.065	0.000000
7.658577	-13.065	0.000000
16.6586	-13.065	28.6595
-39.3414	-12.065	126.779
-30.3414	-12.065	0.000000
-21.3414	-12.065	0.000000
-12.3414	-12.065	6.136269
-3.341423	-12.065	0.000000
5.658577	-12.065	0.000000
14.6586	-12.065	11.1573
23.6586	-12.065	0.000000
-32.3414	-11.065	0.000000
-23.3414	-11.065	0.000000
-14.3414	-11.065	22.0457
-5.341423	-11.065	0.000000
3.658577	-11.065	0.000000
12.6586	-11.065	32.9487
21.6586	-11.065	3.712515
-34.3414	-10.065	0.000000
-25.3414	-10.065	0.000000
-16.3414	-10.065	0.000000
-7.341423	-10.065	12.6887
1.658577	-10.065	0.000000
10.6586	-10.065	34.9139
19.6586	-10.065	0.000000
-36.3414	-9.065000	0.000000
-27.3414	-9.065000	0.000000
-18.3414	-9.065000	12.9596
-9.341423	-9.065000	17.9742
-0.341423	-9.065000	0.000000
8.658577	-9.065000	33.8196
17.6586	-9.065000	0.000000
-38.3414	-8.065000	0.000000
-29.3414	-8.065000	0.000000
-20.3414	-8.065000	3.548739
-11.3414	-8.065000	0.000000
-2.341423	-8.065000	6.946182
6.658577	-8.065000	0.000000
15.6586	-8.065000	17.9957
24.6586	-8.065000	32.3889
-31.3414	-7.065000	0.000000
-22.3414	-7.065000	27.0308
-13.3414	-7.065000	0.000000
-4.341423	-7.065000	27.4594
4.658577	-7.065000	0.000000
13.6586	-7.065000	14.7159
22.6586	-7.065000	12.0283
-33.3414	-6.065000	0.000000
-24.3414	-6.065000	0.000000
-15.3414	-6.065000	0.000000
-6.341423	-6.065000	20.704
2.658577	-6.065000	23.84
11.6586	-6.065000	0.000000
20.6586	-6.065000	4.021227
-35.3414	-5.065000	0.000000
-26.3414	-5.065000	0.000000
-17.3414	-5.065000	36.0945
-8.341423	-5.065000	0.000000
0.658577	-5.065000	24.6966
9.658577	-5.065000	22.0229
18.6586	-5.065000	5.522736
-37.3414	-4.065000	1998.19
-28.3414	-4.065000	15.733
-19.3414	-4.065000	24.0498
-10.3414	-4.065000	0.000000
-1.341423	-4.065000	31.9996
7.658577	-4.065000	10.5476
16.6586	-4.065000	17.1823
-39.3414	-3.065000	36.8992
-30.3414	-3.065000	0.000000
-21.3414	-3.065000	0.000000
-12.3414	-3.065000	0.000000
-3.341423	-3.065000	26.0876
5.658577	-3.065000	9.428015
14.6586	-3.065000	648.098
23.6586	-3.065000	4.908474
-32.3414	-2.065000	31.4393
-23.3414	-2.065000	0.000000
-14.3414	-2.065000	0.000000
-5.341423	-2.065000	0.000000
3.658577	-2.065000	29.832
12.6586	-2.065000	0.000000
21.6586	-2.065000	33.4127
-34.3414	-1.065000	34.4387
-25.3414	-1.065000	0.000000
-16.3414	-1.065000	2000
-7.341423	-1.065000	0.000000
1.658577	-1.065000	0.000000
10.6586	-1.065000	9.681172
19.6586	-1.065000	15.6128
-36.3414	-0.065000	0.000000
-27.3414	-0.065000	35.7077
-18.3414	-0.065000	10.6278
-9.341423	-0.065000	0.000000
-0.341423	-0.065000	0.000000
8.658577	-0.065000	8.199831
17.6586	-0.065000	0.000000
-38.3414	0.935000	0.654617
-29.3414	0.935000	33.018
-20.3414	0.935000	19.7967
-11.3414	0.935000	0.000000
-2.341423	0.935000	0.000000
6.658577	0.935000	0.000000
15.6586	0.935000	0.000000
24.6586	0.935000	32.2059
-31.3414	1.935000	0.000000
-22.3414	1.935000	0.000000
-13.3414	1.935000	0.000000
-4.341423	1.935000	0.000000
4.658577	1.935000	0.000000
13.6586	1.935000	0.000000
22.6586	1.935000	0.000000
-33.3414	2.935000	0.000000
-24.3414	2.935000	0.000000
-15.3414	2.935000	37.4746
-6.341423	2.935000	0.000000
2.658577	2.935000	0.000000
11.6586	2.935000	0.000000
20.6586	2.935000	25.4779
-35.3414	3.935000	0.000000
-26.3414	3.935000	0.000000
-17.3414	3.935000	645.769
-8.341423	3.935000	0.000000
0.658577	3.935000	0.000000
9.658577	3.935000	0.000000
18.6586	3.935000	0.000000
-37.3414	4.935000	1099.19
-28.3414	4.935000	13.3838
-19.3414	4.935000	0.000000
-10.3414	4.935000	0.000000
-1.341423	4.935000	0.000000
7.658577	4.935000	0.000000
16.6586	4.935000	0.000000
-39.3414	5.935000	0.000000
-30.3414	5.935000	31.9097
-21.3414	5.935000	26.4435
-12.3414	5.935000	27.9474
-3.341423	5.935000	0.000000
5.658577	5.935000	16.2084
14.6586	5.935000	0.000000
23.6586	5.935000	0.000000
-32.3414	6.935000	0.000000
-23.3414	6.935000	38.9192
-14.3414	6.935000	0.000000
-5.341423	6.935000	20.0102
3.658577	6.935000	31.7715
12.6586	6.935000	0.000000
21.6586	6.935000	0.000000
-34.3414	7.935000	0.000000
-25.3414	7.935000	107.646
-16.3414	7.935000	0.000000
-7.341423	7.935000	8.656270
1.658577	7.935000	13.0112
10.6586	7.935000	0.000000
19.6586	7.935000	38.9359
-36.3414	8.935000	0.000000
-27.3414	8.935000	0.000000
-18.3414	8.935000	0.000000
-9.341423	8.935000	18.3794
-0.341423	8.935000	0.000000
8.658577	8.935000	6.483848
17.6586	8.935000	0.000000
-38.3414	9.935000	0.000000
-29.3414	9.935000	0.000000
-20.3414	9.935000	19.3645
-11.3414	9.935000	0.000000
-2.341423	9.935000	0.000000
6.658577	9.935000	3.219720
15.6586	9.935000	34.0766
24.6586	9.935000	33.8106
-31.3414	10.935	0.000000
-22.3414	10.935	9.662834
-13.3414	10.935	0.000000
-4.341423	10.935	0.000000
4.658577	10.935	7.389035
13.6586	10.935	34.1905
22.6586	10.935	17.677
-33.3414	11.935	0.000000
-24.3414	11.935	31.8816
-15.3414	11.935	0.000000
-6.341423	11.935	13.4476
2.658577	11.935	0.000000
11.6586	11.935	0.000000
20.6586	11.935	32.9421
-35.3414	12.935	0.000000
-26.3414	12.935	25.5074
-17.3414	12.935	9.893927
-8.341423	12.935	0.000000
0.658577	12.935	0.000000
9.658577	12.935	0.000000
18.6586	12.935	32.6802
-37.3414	13.935	0.000000
-28.3414	13.935	0.000000
-19.3414	13.935	0.000000
-10.3414	13.935	25.6046
-1.341423	13.935	9.304908
7.658577	13.935	0.000000
16.6586	13.935	35.1746
-39.3414	14.935	0.000000
-30.3414	14.935	0.000000
-21.3414	14.935	0.000000
-12.3414	14.935	15.652
-3.341423	14.935	16.1937
5.658577	14.935	29.665
14.6586	14.935	37.9463
23.6586	14.935	36.7488
-32.3414	15.935	0.000000
-23.3414	15.935	34.4663
-14.3414	15.935	0.000000
-5.341423	15.935	3.279736
3.658577	15.935	23.4693
12.6586	15.935	26.1867
21.6586	15.935	35.5033
24.6586	15.935	35.7012

File: SiO2 pos.txt
#XList		#YList		#IList
-39.3414	-21.065	966.258
-30.3414	-21.065	900
-21.3414	-21.065	963.366
-12.3414	-21.065	962.826
-3.341423	-21.065	966.673
5.658577	-21.065	958.539
14.6586	-21.065	965.178
23.6586	-21.065	968.586
-32.3414	-20.065	963.431
-23.3414	-20.065	969.171
-14.3414	-20.065	966.457
-5.341423	-20.065	956.947
3.658577	-20.065	960.811
12.6586	-20.065	966.428
21.6586	-20.065	966.114
-34.3414	-19.065	969.071
-25.3414	-19.065	949.804
-16.3414	-19.065	957.255
-7.341423	-19.065	968.583
1.658577	-19.065	900
10.6586	-19.065	965.46
19.6586	-19.065	964.562
-36.3414	-18.065	965.808
-27.3414	-18.065	962.493
-18.3414	-18.065	963.467
-9.341423	-18.065	962.276
-0.341423	-18.065	966.342
8.658577	-18.065	965.069
17.6586	-18.065	967.981
-38.3414	-17.065	962.58
-29.3414	-17.065	964.071
-20.3414	-17.065	970.35
-11.3414	-17.065	962.515
-2.341423	-17.065	964.104
6.658577	-17.065	959.496
15.6586	-17.065	965.622
24.6586	-17.065	969.55
-31.3414	-16.065	963.503
-22.3414	-16.065	908.871
-13.3414	-16.065	962.492
-4.341423	-16.065	1024.45
4.658577	-16.065	960.836
13.6586	-16.065	967.443
22.6586	-16.065	965.759
-33.3414	-15.065	963.194
-24.3414	-15.065	963.153
-15.3414	-15.065	962.514
-6.341423	-15.065	950.135
2.658577	-15.065	963.642
11.6586	-15.065	966.216
20.6586	-15.065	966.899
-35.3414	-14.065	959.828
-26.3414	-14.065	963.798
-17.3414	-14.065	968.667
-8.341423	-14.065	966.725
0.658577	-14.065	963.505
9.658577	-14.065	964.175
18.6586	-14.065	966.243
-37.3414	-13.065	959.504
-28.3414	-13.065	965.072
-19.3414	-13.065	968.803
-10.3414	-13.065	967.506
-1.341423	-13.065	965.05
7.658577	-13.065	960.276
16.6586	-13.065	964.951
-39.3414	-12.065	957.621
-30.3414	-12.065	962.31
-21.3414	-12.065	944.374
-12.3414	-12.065	960.778
-3.341423	-12.065	965.571
5.658577	-12.065	967.635
14.6586	-12.065	963.098
23.6586	-12.065	973.689
-32.3414	-11.065	964.775
-23.3414	-11.065	969.049
-14.3414	-11.065	966.013
-5.341423	-11.065	964.27
3.658577	-11.065	966.614
12.6586	-11.065	965.451
21.6586	-11.065	971.63
-34.3414	-10.065	963.073
-25.3414	-10.065	1035.7
-16.3414	-10.065	963.806
-7.341423	-10.065	978.17
1.658577	-10.065	962.853
10.6586	-10.065	966.806
19.6586	-10.065	953.648
-36.3414	-9.065000	958.39
-27.3414	-9.065000	963.297
-18.3414	-9.065000	967.524
-9.341423	-9.065000	964.341
-0.341423	-9.065000	959.541
8.658577	-9.065000	969.787
17.6586	-9.065000	959.678
-38.3414	-8.065000	960.682
-29.3414	-8.065000	960.62
-20.3414	-8.065000	961.037
-11.3414	-8.065000	961.936
-2.341423	-8.065000	971.272
6.658577	-8.065000	973.34
15.6586	-8.065000	965.547
24.6586	-8.065000	968.382
-31.3414	-7.065000	962.087
-22.3414	-7.065000	966.653
-13.3414	-7.065000	962.819
-4.341423	-7.065000	968.745
4.658577	-7.065000	977.481
13.6586	-7.065000	964.324
22.6586	-7.065000	973.515
-33.3414	-6.065000	964.087
-24.3414	-6.065000	959.376
-15.3414	-6.065000	954.581
-6.341423	-6.065000	964.079
2.658577	-6.065000	964.47
11.6586	-6.065000	961.799
20.6586	-6.065000	960.667
-35.3414	-5.065000	963.778
-26.3414	-5.065000	900
-17.3414	-5.065000	969.53
-8.341423	-5.065000	1100
0.658577	-5.065000	966.823
9.658577	-5.065000	966.692
18.6586	-5.065000	973.425
-37.3414	-4.065000	969.069
-28.3414	-4.065000	964.403
-19.3414	-4.065000	972.254
-10.3414	-4.065000	964.974
-1.341423	-4.065000	965.903
7.658577	-4.065000	966.941
16.6586	-4.065000	965.455
-39.3414	-3.065000	966.568
-30.3414	-3.065000	957.801
-21.3414	-3.065000	966.803
-12.3414	-3.065000	962.966
-3.341423	-3.065000	965.922
5.658577	-3.065000	963.75
14.6586	-3.065000	968.359
23.6586	-3.065000	963
-32.3414	-2.065000	966.432
-23.3414	-2.065000	963.931
-14.3414	-2.065000	957.334
-5.341423	-2.065000	961.645
3.658577	-2.065000	967.33
12.6586	-2.065000	967.215
21.6586	-2.065000	965.129
-34.3414	-1.065000	920.629
-25.3414	-1.065000	965.159
-16.3414	-1.065000	968.377
-7.341423	-1.065000	962.864
1.658577	-1.065000	962.077
10.6586	-1.065000	962.339
19.6586	-1.065000	955.518
-36.3414	-0.065000	961.666
-27.3414	-0.065000	967.832
-18.3414	-0.065000	969.613
-9.341423	-0.065000	962.865
-0.341423	-0.065000	960.606
8.658577	-0.065000	956.113
17.6586	-0.065000	963.448
-38.3414	0.935000	900
-29.3414	0.935000	967.885
-20.3414	0.935000	965.257
-11.3414	0.935000	963.081
-2.341423	0.935000	961.782
6.658577	0.935000	963.156
15.6586	0.935000	968.572
24.6586	0.935000	943.202
-31.3414	1.935000	963.758
-22.3414	1.935000	962.244
-13.3414	1.935000	960.59
-4.341423	1.935000	960.567
4.658577	1.935000	1063.97
13.6586	1.935000	962.425
22.6586	1.935000	966.404
-33.3414	2.935000	982.234
-24.3414	2.935000	964.087
-15.3414	2.935000	968.122
-6.341423	2.935000	962.105
2.658577	2.935000	947.6
11.6586	2.935000	965.71
20.6586	2.935000	962.682
-35.3414	3.935000	928.89
-26.3414	3.935000	963.045
-17.3414	3.935000	956.753
-8.341423	3.935000	979.669
0.658577	3.935000	959.64
9.658577	3.935000	959.608
18.6586	3.935000	961.216
-37.3414	4.935000	957.377
-28.3414	4.935000	965.904
-19.3414	4.935000	967.882
-10.3414	4.935000	962.658
-1.341423	4.935000	963.048
7.658577	4.935000	964.856
16.6586	4.935000	961.064
-39.3414	5.935000	950.915
-30.3414	5.935000	966.625
-21.3414	5.935000	966.446
-12.3414	5.935000	964.777
-3.341423	5.935000	900
5.658577	5.935000	958.321
14.6586	5.935000	962.363
23.6586	5.935000	965.852
-32.3414	6.935000	959.975
-23.3414	6.935000	960.013
-14.3414	6.935000	962.534
-5.341423	6.935000	966.134
3.658577	6.935000	965.617
12.6586	6.935000	962.964
21.6586	6.935000	962.966
-34.3414	7.935000	959.977
-25.3414	7.935000	962.179
-16.3414	7.935000	959.65
-7.341423	7.935000	967.117
1.658577	7.935000	963.98
10.6586	7.935000	964.913
19.6586	7.935000	968.751
-36.3414	8.935000	961.464
-27.3414	8.935000	966.573
-18.3414	8.935000	904.155
-9.341423	8.935000	974.513
-0.341423	8.935000	957.319
8.658577	8.935000	966.02
17.6586	8.935000	995.523
-38.3414	9.935000	959.916
-29.3414	9.935000	959.933
-20.3414	9.935000	955.859
-11.3414	9.935000	965.82
-2.341423	9.935000	966.256
6.658577	9.935000	976.633
15.6586	9.935000	967.877
24.6586	9.935000	966.749
-31.3414	10.935	959.87
-22.3414	10.935	971.285
-13.3414	10.935	1065.93
-4.341423	10.935	965.512
4.658577	10.935	978.56
13.6586	10.935	965.83
22.6586	10.935	967.944
-33.3414	11.935	961.766
-24.3414	11.935	970.728
-15.3414	11.935	963.358
-6.341423	11.935	968.642
2.658577	11.935	964.67
11.6586	11.935	967.309
20.6586	11.935	968.536
-35.3414	12.935	964.056
-26.3414	12.935	969.298
-17.3414	12.935	965.589
-8.341423	12.935	968.639
0.658577	12.935	966.59
9.658577	12.935	961.546
18.6586	12.935	968.63
-37.3414	13.935	950.2
-28.3414	13.935	969.592
-19.3414	13.935	964.33
-10.3414	13.935	966.469
-1.341423	13.935	965.022
7.658577	13.935	965.464
16.6586	13.935	969.081
-39.3414	14.935	962.45
-30.3414	14.935	962.114
-21.3414	14.935	900
-12.3414	14.935	964.786
-3.341423	14.935	962.787
5.658577	14.935	969.28
14.6586	14.935	966.528
23.6586	14.935	969.658
-32.3414	15.935	960.726
-23.3414	15.935	967.724
-14.3414	15.935	961.368
-5.341423	15.935	976.183
3.658577	15.935	970.279
12.6586	15.935	965.297
21.6586	15.935	968.589
24.6586	15.935	970.056