Folder: graphene-production/data/derived_data/raman/20170920_Gr-NH2_for_Radisurf/20170920 Gr-NH for Radisurf map 1 (part 3)

File: D pos.txt
#XList		#YList		#IList
-28	-22	1355.26
-9.000000	-22	1346.77
10	-22	1348.34
29	-22	1355.33
-18.5	-21.5	1349.17
0.500000	-21.5	1348.21
19.5	-21.5	1348.58
-28	-21	1341.48
-9.000000	-21	1349.37
10	-21	1349.03
29	-21	1348.37
-18.5	-20.5	1347.7
0.500000	-20.5	1361.03
19.5	-20.5	1348.25
-28	-20	1380
-9.000000	-20	1349.04
10	-20	1346.86
29	-20	1349.39
-18.5	-19.5	1346.37
0.500000	-19.5	1341.08
19.5	-19.5	1348.77
-28	-19	1380
-9.000000	-19	1349.8
10	-19	1346.45
29	-19	1349.45
-18.5	-18.5	1348.06
0.500000	-18.5	1334.01
19.5	-18.5	1347.54
-28	-18	1361.55
-9.000000	-18	1366.44
10	-18	1345.84
29	-18	1348.54
-18.5	-17.5	1350.72
0.500000	-17.5	1351.75
19.5	-17.5	1348.18
-28	-17	1349.75
-9.000000	-17	1365.09
10	-17	1347.82
29	-17	1350.78
-18.5	-16.5	1347.26
0.500000	-16.5	1352.64
19.5	-16.5	1349.03
-28	-16	1349.61
-9.000000	-16	1353.88
10	-16	1348.06
29	-16	1349.31
-18.5	-15.5	1347.15
0.500000	-15.5	1352.08
19.5	-15.5	1347.92
-28	-15	1348.13
-9.000000	-15	1347.79
10	-15	1348.53
29	-15	1348.85
-18.5	-14.5	1346.51
0.500000	-14.5	1349.97
19.5	-14.5	1351.38
-28	-14	1359.52
-9.000000	-14	1351.14
10	-14	1348.15
29	-14	1349.72
-18.5	-13.5	1344.61
0.500000	-13.5	1347.94
19.5	-13.5	1345.63
-28	-13	1346.13
-9.000000	-13	1347.51
10	-13	1350.69
29	-13	1347.65
-18.5	-12.5	1359.44
0.500000	-12.5	1348.42
19.5	-12.5	1360.36
-28	-12	1356.68
-9.000000	-12	1344.85
10	-12	1355.2
29	-12	1348.58
-18.5	-11.5	1345.47
0.500000	-11.5	1350.25
19.5	-11.5	1349.15
-28	-11	1358.79
-9.000000	-11	1345.58
10	-11	1347.99
29	-11	1358.08
-18.5	-10.5	1346.09
0.500000	-10.5	1349.17
19.5	-10.5	1349.95
-28	-10	1346.15
-9.000000	-10	1345.08
10	-10	1351.27
29	-10	1369.13
-18.5	-9.500000	1346.11
0.500000	-9.500000	1348.1
19.5	-9.500000	1350.08
-28	-9.000000	1347.2
-9.000000	-9.000000	1346.77
10	-9.000000	1347.13
29	-9.000000	1352.22
-18.5	-8.500000	1346.22
0.500000	-8.500000	1346.77
19.5	-8.500000	1349.41
-28	-8.000000	1355.69
-9.000000	-8.000000	1346.71
10	-8.000000	1345.96
29	-8.000000	1348.33
-18.5	-7.500000	1347.01
0.500000	-7.500000	1347.66
19.5	-7.500000	1355.99
-28	-7.000000	1353.12
-9.000000	-7.000000	1347.2
10	-7.000000	1348.42
29	-7.000000	1350.43
-18.5	-6.500000	1347.13
0.500000	-6.500000	1347.34
19.5	-6.500000	1347.24
-28	-6.000000	1351.03
-9.000000	-6.000000	1343.81
10	-6.000000	1349.05
29	-6.000000	1351.84
-18.5	-5.500000	1348.7
0.500000	-5.500000	1350.77
19.5	-5.500000	1348.69
-28	-5.000000	1350.54
-9.000000	-5.000000	1369.83
10	-5.000000	1348.8
29	-5.000000	1351.93
-18.5	-4.500000	1348.84
0.500000	-4.500000	1349.55
19.5	-4.500000	1343.96
-28	-4.000000	1350.91
-9.000000	-4.000000	1354.17
10	-4.000000	1351.03
29	-4.000000	1347.62
-18.5	-3.500000	1348.02
0.500000	-3.500000	1348.9
19.5	-3.500000	1349.21
-28	-3.000000	1349.15
-9.000000	-3.000000	1343.42
10	-3.000000	1347.92
29	-3.000000	1349.45
-18.5	-2.500000	1350.1
0.500000	-2.500000	1348.46
19.5	-2.500000	1348.39
-28	-2.000000	1348.76
-9.000000	-2.000000	1355.23
10	-2.000000	1346.78
29	-2.000000	1347.88
-18.5	-1.500000	1348.89
0.500000	-1.500000	1348.71
19.5	-1.500000	1349.01
-28	-1.000000	1350.14
-9.000000	-1.000000	1345.76
10	-1.000000	1346.61
29	-1.000000	1347.65
-18.5	-0.500000	1347.12
0.500000	-0.500000	1352.73
19.5	-0.500000	1348.16
-28	0.000000	1350.95
-9.000000	0.000000	1347.36
10	0.000000	1346.33
29	0.000000	1347.57
-18.5	0.500000	1348.27
0.500000	0.500000	1346.88
19.5	0.500000	1348.44
-28	1.000000	1352.58
-9.000000	1.000000	1348.04
10	1.000000	1347.55
29	1.000000	1347.02
-18.5	1.500000	1349.46
0.500000	1.500000	1348.45
19.5	1.500000	1346.52
-28	2.000000	1351.27
-9.000000	2.000000	1348.92
10	2.000000	1348.1
29	2.000000	1347.56
-18.5	2.500000	1347.15
0.500000	2.500000	1350.17
19.5	2.500000	1348.44
-28	3.000000	1349.08
-9.000000	3.000000	1350.02
10	3.000000	1348.19
29	3.000000	1347.41
-18.5	3.500000	1348.18
0.500000	3.500000	1348.24
19.5	3.500000	1347.5
-28	4.000000	1349.67
-9.000000	4.000000	1349.27
10	4.000000	1349.94
29	4.000000	1347.64
-18.5	4.500000	1349.19
0.500000	4.500000	1350.22
19.5	4.500000	1348.36
-28	5.000000	1349.05
-9.000000	5.000000	1350.09
10	5.000000	1351.71
29	5.000000	1348.29
-18.5	5.500000	1350.22
0.500000	5.500000	1348.71
19.5	5.500000	1348.34
-28	6.000000	1348.71
-9.000000	6.000000	1348.4
10	6.000000	1350.05
29	6.000000	1348.33
-18.5	6.500000	1348.71
0.500000	6.500000	1350.08
19.5	6.500000	1348.04
-28	7.000000	1348.77
-9.000000	7.000000	1348.98
10	7.000000	1347.03
29	7.000000	1346.86
-18.5	7.500000	1349.14
0.500000	7.500000	1348.57
19.5	7.500000	1347.91
-28	8.000000	1356.11
-9.000000	8.000000	1349.13
10	8.000000	1349.66
29	8.000000	1345.16
-18.5	8.500000	1348.66
0.500000	8.500000	1347.89
19.5	8.500000	1348.02
-28	9.000000	1348.88
-9.000000	9.000000	1348.14
10	9.000000	1348.23
29	9.000000	1348.21
-18.5	9.500000	1347.78
0.500000	9.500000	1349.4
19.5	9.500000	1348.54
-28	10	1380
-9.000000	10	1347.94
10	10	1348.82
29	10	1349.01
-18.5	10.5	1353.23
0.500000	10.5	1350.56
19.5	10.5	1348.01
-28	11	1343.92
-9.000000	11	1348.86
10	11	1349.76
29	11	1348.67
-18.5	11.5	1352.58
0.500000	11.5	1349.59
19.5	11.5	1349.26
-28	12	1364.14
-9.000000	12	1347.6
10	12	1350.91
29	12	1348.15
-18.5	12.5	1367.1
0.500000	12.5	1349.47
19.5	12.5	1349.72
-28	13	1353.97
-9.000000	13	1348.97
10	13	1351.02
29	13	1346.69
-18.5	13.5	1378.53
0.500000	13.5	1348.52
19.5	13.5	1348.43
-28	14	1320.4
-9.000000	14	1348.76
10	14	1347.37
29	14	1348.48
-18.5	14.5	1327.44
0.500000	14.5	1348.37
19.5	14.5	1350.33
-28	15	1356.86
-9.000000	15	1348.79
10	15	1347.34
29	15	1348.98
-18.5	15.5	1373.76
0.500000	15.5	1350.23
19.5	15.5	1348.11
-28	16	1376.59
-9.000000	16	1347.93
10	16	1348.88
29	16	1346.09
-18.5	16.5	1380
0.500000	16.5	1364.5
19.5	16.5	1349.14
-28	17	1363.4
-9.000000	17	1348.47
10	17	1349.69
29	17	1345.18
-18.5	17.5	1380
0.500000	17.5	1352.19
19.5	17.5	1349.93
-28	18	1376.52
-9.000000	18	1349.7
10	18	1356.42
29	18	1349.52
-18.5	18.5	1380
0.500000	18.5	1352.57
19.5	18.5	1350.04
-28	19	1357.47
-9.000000	19	1348.1
10	19	1347.47
29	19	1341.36
-18.5	19.5	1329.77
0.500000	19.5	1348.93
19.5	19.5	1349.17
-28	20	1348.37
-9.000000	20	1357.29
10	20	1350.31
29	20	1320
38	20	1340.71

File: DDp FWHM.txt
#XList		#YList		#IList
-28	-22	0.639823
-9.000000	-22	183.327
10	-22	172.736
29	-22	94.3049
-18.5	-21.5	176.27
0.500000	-21.5	183.621
19.5	-21.5	191.147
-28	-21	1.554381
-9.000000	-21	206.441
10	-21	167.732
29	-21	154.931
-18.5	-20.5	196.225
0.500000	-20.5	130.056
19.5	-20.5	191.127
-28	-20	0.639823
-9.000000	-20	163.762
10	-20	184.471
29	-20	185.39
-18.5	-19.5	214.685
0.500000	-19.5	1.845306
19.5	-19.5	180.566
-28	-19	152.369
-9.000000	-19	179.321
10	-19	145.866
29	-19	155.18
-18.5	-18.5	158.141
0.500000	-18.5	75.0048
19.5	-18.5	187.814
-28	-18	53.3065
-9.000000	-18	537.789
10	-18	167.085
29	-18	172.154
-18.5	-17.5	456.675
0.500000	-17.5	143.691
19.5	-17.5	164.93
-28	-17	130.841
-9.000000	-17	115.84
10	-17	183.947
29	-17	161.352
-18.5	-16.5	167.884
0.500000	-16.5	132.93
19.5	-16.5	154.317
-28	-16	107.097
-9.000000	-16	172.6
10	-16	213.202
29	-16	133.394
-18.5	-15.5	162.64
0.500000	-15.5	134.416
19.5	-15.5	127.977
-28	-15	79.9095
-9.000000	-15	161.817
10	-15	153.513
29	-15	164.525
-18.5	-14.5	218.28
0.500000	-14.5	135.169
19.5	-14.5	593.313
-28	-14	0.639823
-9.000000	-14	168.166
10	-14	116.595
29	-14	112.203
-18.5	-13.5	199.159
0.500000	-13.5	147.998
19.5	-13.5	165.73
-28	-13	172.463
-9.000000	-13	171.714
10	-13	161.088
29	-13	146.449
-18.5	-12.5	140.675
0.500000	-12.5	151.818
19.5	-12.5	52.7547
-28	-12	62.5045
-9.000000	-12	197.165
10	-12	178.587
29	-12	172.663
-18.5	-11.5	193.295
0.500000	-11.5	140.401
19.5	-11.5	152.402
-28	-11	119.68
-9.000000	-11	201.385
10	-11	131.213
29	-11	59.8966
-18.5	-10.5	190.232
0.500000	-10.5	209.822
19.5	-10.5	192.231
-28	-10	156.826
-9.000000	-10	206.068
10	-10	156.499
29	-10	16.1507
-18.5	-9.500000	180.279
0.500000	-9.500000	152.168
19.5	-9.500000	105.47
-28	-9.000000	171.596
-9.000000	-9.000000	185.14
10	-9.000000	146.039
29	-9.000000	155.435
-18.5	-8.500000	193.265
0.500000	-8.500000	176.264
19.5	-8.500000	152.47
-28	-8.000000	194.182
-9.000000	-8.000000	162.358
10	-8.000000	150.62
29	-8.000000	99.7853
-18.5	-7.500000	186.829
0.500000	-7.500000	148.973
19.5	-7.500000	185.089
-28	-7.000000	235.837
-9.000000	-7.000000	166.979
10	-7.000000	138.022
29	-7.000000	91.4572
-18.5	-6.500000	174.751
0.500000	-6.500000	162.233
19.5	-6.500000	199.757
-28	-6.000000	225.345
-9.000000	-6.000000	151.959
10	-6.000000	176.607
29	-6.000000	286.126
-18.5	-5.500000	175.416
0.500000	-5.500000	195.48
19.5	-5.500000	175.031
-28	-5.000000	160.056
-9.000000	-5.000000	2.130603
10	-5.000000	198.651
29	-5.000000	152.805
-18.5	-4.500000	182.82
0.500000	-4.500000	167.26
19.5	-4.500000	137.175
-28	-4.000000	182.023
-9.000000	-4.000000	1.976887
10	-4.000000	142.571
29	-4.000000	192.521
-18.5	-3.500000	128.903
0.500000	-3.500000	164.923
19.5	-3.500000	163.298
-28	-3.000000	135.474
-9.000000	-3.000000	0.672317
10	-3.000000	166.464
29	-3.000000	168.07
-18.5	-2.500000	155.7
0.500000	-2.500000	156.552
19.5	-2.500000	203.179
-28	-2.000000	179.815
-9.000000	-2.000000	161.884
10	-2.000000	178.703
29	-2.000000	176.761
-18.5	-1.500000	155.475
0.500000	-1.500000	148.261
19.5	-1.500000	157.096
-28	-1.000000	184.024
-9.000000	-1.000000	156.928
10	-1.000000	189.986
29	-1.000000	166.736
-18.5	-0.500000	159.882
0.500000	-0.500000	160.34
19.5	-0.500000	146.876
-28	0.000000	154.682
-9.000000	0.000000	163.857
10	0.000000	172.82
29	0.000000	187.448
-18.5	0.500000	172.922
0.500000	0.500000	158.024
19.5	0.500000	151.809
-28	1.000000	187.766
-9.000000	1.000000	179.361
10	1.000000	185.748
29	1.000000	194.302
-18.5	1.500000	163.414
0.500000	1.500000	182.664
19.5	1.500000	169.241
-28	2.000000	190.194
-9.000000	2.000000	143.681
10	2.000000	185.264
29	2.000000	176.426
-18.5	2.500000	165.785
0.500000	2.500000	186.444
19.5	2.500000	167.559
-28	3.000000	163.451
-9.000000	3.000000	155.359
10	3.000000	203.113
29	3.000000	163.142
-18.5	3.500000	131.706
0.500000	3.500000	173.685
19.5	3.500000	194.663
-28	4.000000	180.111
-9.000000	4.000000	204.972
10	4.000000	182.976
29	4.000000	149.85
-18.5	4.500000	160.804
0.500000	4.500000	194.653
19.5	4.500000	163.654
-28	5.000000	175.92
-9.000000	5.000000	207.208
10	5.000000	195.91
29	5.000000	156.797
-18.5	5.500000	191.829
0.500000	5.500000	171.604
19.5	5.500000	176.899
-28	6.000000	168.445
-9.000000	6.000000	176.106
10	6.000000	144.125
29	6.000000	172.209
-18.5	6.500000	161.462
0.500000	6.500000	192.383
19.5	6.500000	150.015
-28	7.000000	149.818
-9.000000	7.000000	167.814
10	7.000000	109.922
29	7.000000	152.512
-18.5	7.500000	199.851
0.500000	7.500000	168.699
19.5	7.500000	139.19
-28	8.000000	186.985
-9.000000	8.000000	184.161
10	8.000000	128.367
29	8.000000	150.693
-18.5	8.500000	167.398
0.500000	8.500000	184.271
19.5	8.500000	137.882
-28	9.000000	827.859
-9.000000	9.000000	199.464
10	9.000000	153.132
29	9.000000	172.74
-18.5	9.500000	130.826
0.500000	9.500000	175.892
19.5	9.500000	188.196
-28	10	0.896578
-9.000000	10	174.615
10	10	196.758
29	10	180.822
-18.5	10.5	69.154
0.500000	10.5	168.231
19.5	10.5	167.986
-28	11	79.1228
-9.000000	11	178.249
10	11	202.525
29	11	193.856
-18.5	11.5	122.122
0.500000	11.5	118.132
19.5	11.5	165.213
-28	12	53.9558
-9.000000	12	197.005
10	12	173.629
29	12	151.371
-18.5	12.5	165.528
0.500000	12.5	171.16
19.5	12.5	160.901
-28	13	318.906
-9.000000	13	173.779
10	13	117.619
29	13	182.005
-18.5	13.5	0.967935
0.500000	13.5	173.95
19.5	13.5	165.369
-28	14	90.8216
-9.000000	14	142.284
10	14	176.535
29	14	163.25
-18.5	14.5	160.299
0.500000	14.5	117.78
19.5	14.5	189.674
-28	15	0.639823
-9.000000	15	158.549
10	15	178.438
29	15	156.358
-18.5	15.5	0.639823
0.500000	15.5	114.832
19.5	15.5	175.856
-28	16	26.0316
-9.000000	16	174.292
10	16	185.791
29	16	177.728
-18.5	16.5	3.056757
0.500000	16.5	54.7577
19.5	16.5	159.4
-28	17	61.1956
-9.000000	17	172.668
10	17	90.8805
29	17	155.601
-18.5	17.5	5.493858
0.500000	17.5	165.174
19.5	17.5	158.419
-28	18	315.366
-9.000000	18	141.03
10	18	147.062
29	18	137.671
-18.5	18.5	129.055
0.500000	18.5	156.766
19.5	18.5	152.248
-28	19	204.495
-9.000000	19	119.423
10	19	122.192
29	19	0.639823
-18.5	19.5	0.642266
0.500000	19.5	155.528
19.5	19.5	182.9
-28	20	218.295
-9.000000	20	171.293
10	20	169.706
29	20	0.639823
38	20	0.639823

File: DDp int.txt
#XList		#YList		#IList
-28	-22	1.447353
-9.000000	-22	82.3204
10	-22	72.1348
29	-22	5.240160
-18.5	-21.5	40.2629
0.500000	-21.5	39.0436
19.5	-21.5	79.4082
-28	-21	2.207878
-9.000000	-21	61.3714
10	-21	49.9428
29	-21	12.3759
-18.5	-20.5	54.6226
0.500000	-20.5	5.763625
19.5	-20.5	59.6115
-28	-20	0.000000
-9.000000	-20	39.9228
10	-20	45.2915
29	-20	38.2323
-18.5	-19.5	50.0206
0.500000	-19.5	1.045661
19.5	-19.5	62.8252
-28	-19	1.542654
-9.000000	-19	15.8807
10	-19	47.4855
29	-19	53.0068
-18.5	-18.5	29.169
0.500000	-18.5	1.810164
19.5	-18.5	61.6466
-28	-18	1.621891
-9.000000	-18	2.193320
10	-18	50.6015
29	-18	41.6857
-18.5	-17.5	21.6824
0.500000	-17.5	11.4911
19.5	-17.5	49.6604
-28	-17	12.7507
-9.000000	-17	3.583725
10	-17	64.8642
29	-17	40.5706
-18.5	-16.5	60.1846
0.500000	-16.5	16.1115
19.5	-16.5	40.3335
-28	-16	16.4587
-9.000000	-16	38.4171
10	-16	45.5108
29	-16	13.2572
-18.5	-15.5	59.1578
0.500000	-15.5	13.9731
19.5	-15.5	25.861
-28	-15	10.7291
-9.000000	-15	57.7944
10	-15	39.1807
29	-15	14.6645
-18.5	-14.5	56.5724
0.500000	-14.5	28.4202
19.5	-14.5	9.048282
-28	-14	0.000000
-9.000000	-14	68.5086
10	-14	23.4475
29	-14	31.6309
-18.5	-13.5	30.6524
0.500000	-13.5	42.2959
19.5	-13.5	0.160618
-28	-13	1.334130
-9.000000	-13	57.4443
10	-13	12.5528
29	-13	40.0707
-18.5	-12.5	23.1375
0.500000	-12.5	37.1338
19.5	-12.5	4.974834
-28	-12	3.348167
-9.000000	-12	56.6431
10	-12	2.086375
29	-12	45.941
-18.5	-11.5	61.1841
0.500000	-11.5	26.8614
19.5	-11.5	17.3297
-28	-11	2.500699
-9.000000	-11	68.3
10	-11	20.9114
29	-11	6.180886
-18.5	-10.5	62.4715
0.500000	-10.5	42.5927
19.5	-10.5	41.0326
-28	-10	33.5663
-9.000000	-10	67.6632
10	-10	21.5066
29	-10	0.000000
-18.5	-9.500000	66.485
0.500000	-9.500000	42.1615
19.5	-9.500000	14.7516
-28	-9.000000	35.7598
-9.000000	-9.000000	66.479
10	-9.000000	34.5943
29	-9.000000	6.323061
-18.5	-8.500000	73.1955
0.500000	-8.500000	65.082
19.5	-8.500000	23.5324
-28	-8.000000	7.820830
-9.000000	-8.000000	57.6544
10	-8.000000	39.7001
29	-8.000000	12.3883
-18.5	-7.500000	77.8221
0.500000	-7.500000	61.0197
19.5	-7.500000	28.5891
-28	-7.000000	11.6015
-9.000000	-7.000000	57.2786
10	-7.000000	33.9753
29	-7.000000	8.892663
-18.5	-6.500000	54.717
0.500000	-6.500000	51.4823
19.5	-6.500000	47.5269
-28	-6.000000	22.3231
-9.000000	-6.000000	28.2443
10	-6.000000	41.377
29	-6.000000	7.413564
-18.5	-5.500000	55.3909
0.500000	-5.500000	36.9489
19.5	-5.500000	43.3172
-28	-5.000000	29.1425
-9.000000	-5.000000	3.365362
10	-5.000000	40.9449
29	-5.000000	22.2142
-18.5	-4.500000	61.0777
0.500000	-4.500000	48.4
19.5	-4.500000	30.3417
-28	-4.000000	20.282
-9.000000	-4.000000	11.221
10	-4.000000	20.2991
29	-4.000000	31.8313
-18.5	-3.500000	40.545
0.500000	-3.500000	54.8693
19.5	-3.500000	31.2115
-28	-3.000000	15.2345
-9.000000	-3.000000	32.6611
10	-3.000000	68.3469
29	-3.000000	46.1136
-18.5	-2.500000	43.3188
0.500000	-2.500000	49.8179
19.5	-2.500000	35.8752
-28	-2.000000	19.2141
-9.000000	-2.000000	17.7039
10	-2.000000	54.2041
29	-2.000000	48.8141
-18.5	-1.500000	42.7986
0.500000	-1.500000	34.617
19.5	-1.500000	29.8968
-28	-1.000000	20.2342
-9.000000	-1.000000	42.5829
10	-1.000000	54.1852
29	-1.000000	54.4365
-18.5	-0.500000	56.1482
0.500000	-0.500000	16.4096
19.5	-0.500000	29.9676
-28	0.000000	22.9615
-9.000000	0.000000	56.1488
10	0.000000	55.0506
29	0.000000	47.3002
-18.5	0.500000	68.339
0.500000	0.500000	40.5276
19.5	0.500000	34.2992
-28	1.000000	32.4794
-9.000000	1.000000	52.9037
10	1.000000	58.3599
29	1.000000	54.6531
-18.5	1.500000	64.1431
0.500000	1.500000	49.4024
19.5	1.500000	30.3324
-28	2.000000	58.2022
-9.000000	2.000000	40.4178
10	2.000000	64.4396
29	2.000000	53.3565
-18.5	2.500000	56.8291
0.500000	2.500000	53.3305
19.5	2.500000	32.2477
-28	3.000000	74.9985
-9.000000	3.000000	40.9812
10	3.000000	60.1241
29	3.000000	49.8448
-18.5	3.500000	49.4381
0.500000	3.500000	42.2319
19.5	3.500000	33.4345
-28	4.000000	67.3322
-9.000000	4.000000	37.7253
10	4.000000	51.5075
29	4.000000	47.3167
-18.5	4.500000	45.2161
0.500000	4.500000	69.4116
19.5	4.500000	37.2448
-28	5.000000	67.5536
-9.000000	5.000000	62.7412
10	5.000000	38.938
29	5.000000	46.9844
-18.5	5.500000	63.9069
0.500000	5.500000	54.2876
19.5	5.500000	35.5599
-28	6.000000	51.1243
-9.000000	6.000000	67.5242
10	6.000000	23.6669
29	6.000000	34.4048
-18.5	6.500000	48.1505
0.500000	6.500000	54.2849
19.5	6.500000	41.7356
-28	7.000000	36.1046
-9.000000	7.000000	76.5312
10	7.000000	20.3871
29	7.000000	39.4306
-18.5	7.500000	46.8356
0.500000	7.500000	56.0012
19.5	7.500000	48.0445
-28	8.000000	2.980581
-9.000000	8.000000	56.7801
10	8.000000	34.0299
29	8.000000	31.4564
-18.5	8.500000	55.0472
0.500000	8.500000	48.5016
19.5	8.500000	28.6444
-28	9.000000	0.000000
-9.000000	9.000000	75.1767
10	9.000000	52.2404
29	9.000000	35.8016
-18.5	9.500000	30.5873
0.500000	9.500000	56.3189
19.5	9.500000	43.7286
-28	10	42.2143
-9.000000	10	67.9544
10	10	45.7516
29	10	43.7637
-18.5	10.5	5.434970
0.500000	10.5	42.1764
19.5	10.5	39.3432
-28	11	2.661501
-9.000000	11	72.6998
10	11	36.0067
29	11	51.3473
-18.5	11.5	12.0818
0.500000	11.5	38.0699
19.5	11.5	50.3234
-28	12	5.091937
-9.000000	12	72.5086
10	12	25.3083
29	12	38.446
-18.5	12.5	1.357185
0.500000	12.5	49.9308
19.5	12.5	52.5069
-28	13	0.405121
-9.000000	13	80.0624
10	13	25.5606
29	13	47.3353
-18.5	13.5	5.544547
0.500000	13.5	54.2116
19.5	13.5	43.3939
-28	14	0.012545
-9.000000	14	63.7307
10	14	57.9637
29	14	45.2161
-18.5	14.5	0.000000
0.500000	14.5	16.2223
19.5	14.5	70.0182
-28	15	0.000000
-9.000000	15	37.8483
10	15	51.7212
29	15	52.412
-18.5	15.5	0.000000
0.500000	15.5	15.0224
19.5	15.5	52.4674
-28	16	1.209051
-9.000000	16	46.9379
10	16	52.1015
29	16	54.6406
-18.5	16.5	0.441081
0.500000	16.5	6.595050
19.5	16.5	42.1432
-28	17	1.381428
-9.000000	17	49.8404
10	17	15.7734
29	17	29.9722
-18.5	17.5	6.497144
0.500000	17.5	25.8425
19.5	17.5	30.6442
-28	18	1.375120
-9.000000	18	38.0573
10	18	12.7008
29	18	6.771725
-18.5	18.5	0.000000
0.500000	18.5	22.9671
19.5	18.5	36.848
-28	19	11.3011
-9.000000	19	18.9713
10	19	20.0951
29	19	0.000000
-18.5	19.5	8.786780
0.500000	19.5	41.1258
19.5	19.5	49.0394
-28	20	62.419
-9.000000	20	8.388859
10	20	31.7104
29	20	12.8666
38	20	5.227040

File: DDp pos.txt
#XList		#YList		#IList
-28	-22	2907.77
-9.000000	-22	2920.22
10	-22	2922.4
29	-22	2923.02
-18.5	-21.5	2924.24
0.500000	-21.5	2926.51
19.5	-21.5	2921.86
-28	-21	2900
-9.000000	-21	2924.45
10	-21	2930.24
29	-21	2938.49
-18.5	-20.5	2924.94
0.500000	-20.5	2905.51
19.5	-20.5	2922.34
-28	-20	2900.7
-9.000000	-20	2914.48
10	-20	2920.94
29	-20	2936.51
-18.5	-19.5	2920.34
0.500000	-19.5	2943.92
19.5	-19.5	2924.84
-28	-19	2901.24
-9.000000	-19	2925.59
10	-19	2923.85
29	-19	2934.69
-18.5	-18.5	2929.54
0.500000	-18.5	2920.1
19.5	-18.5	2918.05
-28	-18	2900.17
-9.000000	-18	2900
10	-18	2918.33
29	-18	2930.88
-18.5	-17.5	2932.8
0.500000	-17.5	2942.71
19.5	-17.5	2914.41
-28	-17	2942.53
-9.000000	-17	2900
10	-17	2917.3
29	-17	2929.67
-18.5	-16.5	2930.51
0.500000	-16.5	2932.95
19.5	-16.5	2922.1
-28	-16	2944.15
-9.000000	-16	2934.45
10	-16	2916.44
29	-16	2941.18
-18.5	-15.5	2921.46
0.500000	-15.5	2947.67
19.5	-15.5	2930.24
-28	-15	2942.46
-9.000000	-15	2917.28
10	-15	2915.85
29	-15	2945.05
-18.5	-14.5	2923.47
0.500000	-14.5	2933.59
19.5	-14.5	2900
-28	-14	2900
-9.000000	-14	2930.55
10	-14	2921.89
29	-14	2925
-18.5	-13.5	2917.36
0.500000	-13.5	2924.61
19.5	-13.5	2949.01
-28	-13	2900
-9.000000	-13	2917.83
10	-13	2938.11
29	-13	2933.62
-18.5	-12.5	2929.95
0.500000	-12.5	2927.68
19.5	-12.5	2931.4
-28	-12	2960.49
-9.000000	-12	2915.35
10	-12	2907.78
29	-12	2927.91
-18.5	-11.5	2916.81
0.500000	-11.5	2931.48
19.5	-11.5	2924.17
-28	-11	2933.67
-9.000000	-11	2916.53
10	-11	2937.78
29	-11	2953.14
-18.5	-10.5	2916.77
0.500000	-10.5	2924.88
19.5	-10.5	2937.24
-28	-10	2927.54
-9.000000	-10	2919.9
10	-10	2930.26
29	-10	2935.61
-18.5	-9.500000	2914.38
0.500000	-9.500000	2928.64
19.5	-9.500000	2941.7
-28	-9.000000	2927.3
-9.000000	-9.000000	2918.92
10	-9.000000	2927.4
29	-9.000000	2933.08
-18.5	-8.500000	2914.02
0.500000	-8.500000	2924.42
19.5	-8.500000	2938.6
-28	-8.000000	2918.16
-9.000000	-8.000000	2920.82
10	-8.000000	2932.46
29	-8.000000	2947.36
-18.5	-7.500000	2926.58
0.500000	-7.500000	2923.39
19.5	-7.500000	2933.23
-28	-7.000000	2942.77
-9.000000	-7.000000	2924.45
10	-7.000000	2926
29	-7.000000	2943.04
-18.5	-6.500000	2924.01
0.500000	-6.500000	2921.61
19.5	-6.500000	2922.64
-28	-6.000000	2941.69
-9.000000	-6.000000	2918.09
10	-6.000000	2927.56
29	-6.000000	2975.79
-18.5	-5.500000	2923.58
0.500000	-5.500000	2935.55
19.5	-5.500000	2927.66
-28	-5.000000	2927.49
-9.000000	-5.000000	2900
10	-5.000000	2932.52
29	-5.000000	2932.21
-18.5	-4.500000	2932.26
0.500000	-4.500000	2925.14
19.5	-4.500000	2923.39
-28	-4.000000	2925.41
-9.000000	-4.000000	2954.71
10	-4.000000	2932.34
29	-4.000000	2935.4
-18.5	-3.500000	2917.81
0.500000	-3.500000	2924.13
19.5	-3.500000	2921.38
-28	-3.000000	2938.63
-9.000000	-3.000000	2983.17
10	-3.000000	2931.24
29	-3.000000	2923.79
-18.5	-2.500000	2925.64
0.500000	-2.500000	2927.66
19.5	-2.500000	2928.03
-28	-2.000000	2932
-9.000000	-2.000000	2937.38
10	-2.000000	2918.82
29	-2.000000	2923.67
-18.5	-1.500000	2930.23
0.500000	-1.500000	2924.79
19.5	-1.500000	2927.6
-28	-1.000000	2931.89
-9.000000	-1.000000	2919.87
10	-1.000000	2914.47
29	-1.000000	2924.18
-18.5	-0.500000	2921.32
0.500000	-0.500000	2923.07
19.5	-0.500000	2928.78
-28	0.000000	2926.55
-9.000000	0.000000	2915.42
10	0.000000	2921.64
29	0.000000	2921.29
-18.5	0.500000	2927.72
0.500000	0.500000	2911.4
19.5	0.500000	2930
-28	1.000000	2933.07
-9.000000	1.000000	2924.63
10	1.000000	2925.89
29	1.000000	2918.91
-18.5	1.500000	2925.09
0.500000	1.500000	2925.22
19.5	1.500000	2925.41
-28	2.000000	2933.79
-9.000000	2.000000	2933.88
10	2.000000	2922.13
29	2.000000	2923.05
-18.5	2.500000	2919.96
0.500000	2.500000	2933.38
19.5	2.500000	2930.77
-28	3.000000	2937.12
-9.000000	3.000000	2932.3
10	3.000000	2926.58
29	3.000000	2923.63
-18.5	3.500000	2921.23
0.500000	3.500000	2926.8
19.5	3.500000	2932.89
-28	4.000000	2930.84
-9.000000	4.000000	2926.75
10	4.000000	2925.7
29	4.000000	2926.88
-18.5	4.500000	2927.93
0.500000	4.500000	2925.77
19.5	4.500000	2928.78
-28	5.000000	2927.84
-9.000000	5.000000	2928.42
10	5.000000	2933.82
29	5.000000	2924.84
-18.5	5.500000	2930.89
0.500000	5.500000	2927.11
19.5	5.500000	2926.02
-28	6.000000	2935.34
-9.000000	6.000000	2930.69
10	6.000000	2934.97
29	6.000000	2927.21
-18.5	6.500000	2931.76
0.500000	6.500000	2925.05
19.5	6.500000	2924.26
-28	7.000000	2927.07
-9.000000	7.000000	2929.39
10	7.000000	2935.24
29	7.000000	2928.62
-18.5	7.500000	2932.54
0.500000	7.500000	2930.94
19.5	7.500000	2924.46
-28	8.000000	2948.7
-9.000000	8.000000	2929.47
10	8.000000	2928.7
29	8.000000	2917.41
-18.5	8.500000	2922.95
0.500000	8.500000	2918.87
19.5	8.500000	2928.26
-28	9.000000	2900
-9.000000	9.000000	2931.06
10	9.000000	2929
29	9.000000	2931.72
-18.5	9.500000	2922.98
0.500000	9.500000	2926.04
19.5	9.500000	2919.21
-28	10	2946.41
-9.000000	10	2925.32
10	10	2932.66
29	10	2931.85
-18.5	10.5	2921.1
0.500000	10.5	2927.02
19.5	10.5	2919.12
-28	11	2914.15
-9.000000	11	2932.47
10	11	2934.77
29	11	2929.58
-18.5	11.5	2942.16
0.500000	11.5	2927.42
19.5	11.5	2936.21
-28	12	2901.95
-9.000000	12	2930.43
10	12	2940.24
29	12	2924.53
-18.5	12.5	2900
0.500000	12.5	2927.38
19.5	12.5	2929.63
-28	13	2900
-9.000000	13	2924.75
10	13	2939.95
29	13	2926.04
-18.5	13.5	2909.2
0.500000	13.5	2919.92
19.5	13.5	2927.59
-28	14	2903.98
-9.000000	14	2924.85
10	14	2928.28
29	14	2924.72
-18.5	14.5	2916.27
0.500000	14.5	2927.59
19.5	14.5	2928.03
-28	15	2911.07
-9.000000	15	2929.92
10	15	2931.93
29	15	2929.96
-18.5	15.5	2915.21
0.500000	15.5	2919.15
19.5	15.5	2926.07
-28	16	2905.69
-9.000000	16	2917.83
10	16	2930.37
29	16	2922.14
-18.5	16.5	2930.09
0.500000	16.5	2941.13
19.5	16.5	2929.46
-28	17	2913.46
-9.000000	17	2925.05
10	17	2941.09
29	17	2916.08
-18.5	17.5	2913.44
0.500000	17.5	2932.23
19.5	17.5	2928.2
-28	18	2914.89
-9.000000	18	2935.82
10	18	2941.43
29	18	2941.43
-18.5	18.5	2985.89
0.500000	18.5	2924.91
19.5	18.5	2930.87
-28	19	2936.51
-9.000000	19	2934.98
10	19	2925.58
29	19	2904.24
-18.5	19.5	2912.83
0.500000	19.5	2927.69
19.5	19.5	2933.54
-28	20	2927.04
-9.000000	20	2935.07
10	20	2932.41
29	20	2900.65
38	20	2916.46