Folder: graphene-production/data/derived_data/raman/20170920_Gr-NH2_for_Radisurf/20170920 Gr-NH for Radisurf map 2

File: 2D FWHM.txt
#XList		#YList		#IList
-39.3414	-21.065	118.484
-30.3414	-21.065	163.299
-21.3414	-21.065	178.777
-12.3414	-21.065	162.781
-3.341423	-21.065	68.3979
5.658577	-21.065	77.89
14.6586	-21.065	161.269
23.6586	-21.065	1520.27
-32.3414	-20.065	128.578
-23.3414	-20.065	129.318
-14.3414	-20.065	149.597
-5.341423	-20.065	108.169
3.658577	-20.065	84.6469
12.6586	-20.065	146.074
21.6586	-20.065	186.364
-34.3414	-19.065	90.5688
-25.3414	-19.065	150.422
-16.3414	-19.065	165.921
-7.341423	-19.065	124.921
1.658577	-19.065	94.6158
10.6586	-19.065	99.2475
19.6586	-19.065	146.687
-36.3414	-18.065	116.681
-27.3414	-18.065	153.761
-18.3414	-18.065	173.77
-9.341423	-18.065	125.733
-0.341423	-18.065	122.586
8.658577	-18.065	149.864
17.6586	-18.065	135.993
-38.3414	-17.065	153.67
-29.3414	-17.065	142.889
-20.3414	-17.065	183.014
-11.3414	-17.065	157.515
-2.341423	-17.065	126.162
6.658577	-17.065	141.832
15.6586	-17.065	167.576
24.6586	-17.065	187.721
-31.3414	-16.065	161.136
-22.3414	-16.065	158.934
-13.3414	-16.065	149.446
-4.341423	-16.065	137.344
4.658577	-16.065	89.974
13.6586	-16.065	193.427
22.6586	-16.065	178.587
-33.3414	-15.065	136.353
-24.3414	-15.065	154.873
-15.3414	-15.065	149.682
-6.341423	-15.065	126.485
2.658577	-15.065	138.821
11.6586	-15.065	174.945
20.6586	-15.065	161.624
-35.3414	-14.065	160.799
-26.3414	-14.065	173.24
-17.3414	-14.065	166.485
-8.341423	-14.065	110.63
0.658577	-14.065	144.197
9.658577	-14.065	165.768
18.6586	-14.065	124.367
-37.3414	-13.065	176.292
-28.3414	-13.065	157.72
-19.3414	-13.065	127.77
-10.3414	-13.065	119.005
-1.341423	-13.065	127.626
7.658577	-13.065	179.7
16.6586	-13.065	198.053
-39.3414	-12.065	152.254
-30.3414	-12.065	164.098
-21.3414	-12.065	90.7856
-12.3414	-12.065	124.123
-3.341423	-12.065	131.53
5.658577	-12.065	99.2369
14.6586	-12.065	140.149
23.6586	-12.065	134.824
-32.3414	-11.065	165.345
-23.3414	-11.065	147.026
-14.3414	-11.065	165.31
-5.341423	-11.065	134.994
3.658577	-11.065	85.4546
12.6586	-11.065	121.434
21.6586	-11.065	74.6364
-34.3414	-10.065	155.209
-25.3414	-10.065	167.628
-16.3414	-10.065	119.631
-7.341423	-10.065	89.0344
1.658577	-10.065	141.651
10.6586	-10.065	1902.27
19.6586	-10.065	82.7303
-36.3414	-9.065000	161.744
-27.3414	-9.065000	168.198
-18.3414	-9.065000	114.465
-9.341423	-9.065000	177.885
-0.341423	-9.065000	141.958
8.658577	-9.065000	172.873
17.6586	-9.065000	116.631
-38.3414	-8.065000	164.562
-29.3414	-8.065000	155.046
-20.3414	-8.065000	91.868
-11.3414	-8.065000	163.551
-2.341423	-8.065000	83.978
6.658577	-8.065000	176.499
15.6586	-8.065000	163.147
24.6586	-8.065000	161.227
-31.3414	-7.065000	177.681
-22.3414	-7.065000	112.211
-13.3414	-7.065000	151.945
-4.341423	-7.065000	75.869
4.658577	-7.065000	145.167
13.6586	-7.065000	185.198
22.6586	-7.065000	106.64
-33.3414	-6.065000	168.06
-24.3414	-6.065000	158.467
-15.3414	-6.065000	168.628
-6.341423	-6.065000	191.785
2.658577	-6.065000	162.689
11.6586	-6.065000	160.848
20.6586	-6.065000	80.8287
-35.3414	-5.065000	164.359
-26.3414	-5.065000	161.477
-17.3414	-5.065000	41.4148
-8.341423	-5.065000	171.144
0.658577	-5.065000	170.156
9.658577	-5.065000	145.498
18.6586	-5.065000	96.3772
-37.3414	-4.065000	127.588
-28.3414	-4.065000	172.188
-19.3414	-4.065000	196.396
-10.3414	-4.065000	137.914
-1.341423	-4.065000	155.027
7.658577	-4.065000	186.195
16.6586	-4.065000	190.319
-39.3414	-3.065000	1781.74
-30.3414	-3.065000	158.892
-21.3414	-3.065000	158.405
-12.3414	-3.065000	134.946
-3.341423	-3.065000	149.54
5.658577	-3.065000	103.708
14.6586	-3.065000	194.176
23.6586	-3.065000	93.6173
-32.3414	-2.065000	121.297
-23.3414	-2.065000	138.597
-14.3414	-2.065000	181.623
-5.341423	-2.065000	128.142
3.658577	-2.065000	167.383
12.6586	-2.065000	139.876
21.6586	-2.065000	98.6946
-34.3414	-1.065000	81.2331
-25.3414	-1.065000	158.335
-16.3414	-1.065000	103.911
-7.341423	-1.065000	131.254
1.658577	-1.065000	174.332
10.6586	-1.065000	119.541
19.6586	-1.065000	121.906
-36.3414	-0.065000	60.921
-27.3414	-0.065000	14.4802
-18.3414	-0.065000	162.003
-9.341423	-0.065000	128.23
-0.341423	-0.065000	150.325
8.658577	-0.065000	174.873
17.6586	-0.065000	142.446
-38.3414	0.935000	51.2819
-29.3414	0.935000	88.1755
-20.3414	0.935000	199.41
-11.3414	0.935000	137.811
-2.341423	0.935000	174.782
6.658577	0.935000	129.448
15.6586	0.935000	161.528
24.6586	0.935000	98.5081
-31.3414	1.935000	145.203
-22.3414	1.935000	150.936
-13.3414	1.935000	178.972
-4.341423	1.935000	148.811
4.658577	1.935000	125.839
13.6586	1.935000	142.056
22.6586	1.935000	164.389
-33.3414	2.935000	131.784
-24.3414	2.935000	112.592
-15.3414	2.935000	334.489
-6.341423	2.935000	156.813
2.658577	2.935000	137.181
11.6586	2.935000	129.983
20.6586	2.935000	170.877
-35.3414	3.935000	148.654
-26.3414	3.935000	163.177
-17.3414	3.935000	170.038
-8.341423	3.935000	116.016
0.658577	3.935000	178.808
9.658577	3.935000	162.392
18.6586	3.935000	144.552
-37.3414	4.935000	145.12
-28.3414	4.935000	170.25
-19.3414	4.935000	150.289
-10.3414	4.935000	129.791
-1.341423	4.935000	139.247
7.658577	4.935000	149.586
16.6586	4.935000	171.471
-39.3414	5.935000	174.436
-30.3414	5.935000	133.736
-21.3414	5.935000	147.088
-12.3414	5.935000	139.342
-3.341423	5.935000	171.851
5.658577	5.935000	146.321
14.6586	5.935000	154.407
23.6586	5.935000	166.045
-32.3414	6.935000	163.645
-23.3414	6.935000	141.397
-14.3414	6.935000	158.383
-5.341423	6.935000	157.439
3.658577	6.935000	134.439
12.6586	6.935000	160.623
21.6586	6.935000	179.864
-34.3414	7.935000	163.995
-25.3414	7.935000	145.952
-16.3414	7.935000	173.78
-7.341423	7.935000	160.504
1.658577	7.935000	186.396
10.6586	7.935000	146.397
19.6586	7.935000	156.346
-36.3414	8.935000	158.776
-27.3414	8.935000	158.244
-18.3414	8.935000	160.809
-9.341423	8.935000	129.27
-0.341423	8.935000	144.537
8.658577	8.935000	91.3454
17.6586	8.935000	172.211
-38.3414	9.935000	167.932
-29.3414	9.935000	152.647
-20.3414	9.935000	142.182
-11.3414	9.935000	130.78
-2.341423	9.935000	167.669
6.658577	9.935000	78.3776
15.6586	9.935000	235.968
24.6586	9.935000	71.7099
-31.3414	10.935	167.878
-22.3414	10.935	150.709
-13.3414	10.935	192.577
-4.341423	10.935	171.358
4.658577	10.935	81.9875
13.6586	10.935	112.086
22.6586	10.935	177.593
-33.3414	11.935	157.692
-24.3414	11.935	185.558
-15.3414	11.935	166.014
-6.341423	11.935	177.921
2.658577	11.935	137.854
11.6586	11.935	143.14
20.6586	11.935	146.092
-35.3414	12.935	160.191
-26.3414	12.935	124.084
-17.3414	12.935	127.666
-8.341423	12.935	98.3873
0.658577	12.935	147.418
9.658577	12.935	170.359
18.6586	12.935	2351.9
-37.3414	13.935	172.486
-28.3414	13.935	150.04
-19.3414	13.935	138.906
-10.3414	13.935	168.929
-1.341423	13.935	129.456
7.658577	13.935	157.577
16.6586	13.935	1763.03
-39.3414	14.935	127.096
-30.3414	14.935	160.605
-21.3414	14.935	166.712
-12.3414	14.935	158.693
-3.341423	14.935	180.384
5.658577	14.935	199.391
14.6586	14.935	183.829
23.6586	14.935	2094.1
-32.3414	15.935	176.435
-23.3414	15.935	116.006
-14.3414	15.935	135.652
-5.341423	15.935	84.048
3.658577	15.935	157.823
12.6586	15.935	184.083
21.6586	15.935	2105.58
24.6586	15.935	2126.43

File: 2D int.txt
#XList		#YList		#IList
-39.3414	-21.065	99.4546
-30.3414	-21.065	263.94
-21.3414	-21.065	71.2533
-12.3414	-21.065	273.614
-3.341423	-21.065	17.8692
5.658577	-21.065	151.922
14.6586	-21.065	159.918
23.6586	-21.065	1.181255
-32.3414	-20.065	237.433
-23.3414	-20.065	54.3585
-14.3414	-20.065	286.381
-5.341423	-20.065	213.692
3.658577	-20.065	124.106
12.6586	-20.065	163.024
21.6586	-20.065	91.6095
-34.3414	-19.065	17.8513
-25.3414	-19.065	184.421
-16.3414	-19.065	353.456
-7.341423	-19.065	213.823
1.658577	-19.065	105.357
10.6586	-19.065	175.621
19.6586	-19.065	217.175
-36.3414	-18.065	130.669
-27.3414	-18.065	186.436
-18.3414	-18.065	107.343
-9.341423	-18.065	232.354
-0.341423	-18.065	137.281
8.658577	-18.065	235.136
17.6586	-18.065	177.647
-38.3414	-17.065	221.206
-29.3414	-17.065	182.29
-20.3414	-17.065	43.9094
-11.3414	-17.065	198.234
-2.341423	-17.065	122.179
6.658577	-17.065	145.067
15.6586	-17.065	230.119
24.6586	-17.065	157.709
-31.3414	-16.065	194.78
-22.3414	-16.065	177.264
-13.3414	-16.065	295.041
-4.341423	-16.065	185.454
4.658577	-16.065	130.445
13.6586	-16.065	27.1976
22.6586	-16.065	94.1888
-33.3414	-15.065	284.703
-24.3414	-15.065	198.689
-15.3414	-15.065	296.9
-6.341423	-15.065	140.327
2.658577	-15.065	88.8146
11.6586	-15.065	204.249
20.6586	-15.065	35.7276
-35.3414	-14.065	303.53
-26.3414	-14.065	198.385
-17.3414	-14.065	65.4155
-8.341423	-14.065	98.363
0.658577	-14.065	181.522
9.658577	-14.065	233.766
18.6586	-14.065	42.5202
-37.3414	-13.065	322.744
-28.3414	-13.065	191.476
-19.3414	-13.065	113.589
-10.3414	-13.065	140.484
-1.341423	-13.065	114.968
7.658577	-13.065	237.57
16.6586	-13.065	48.0683
-39.3414	-12.065	265.096
-30.3414	-12.065	275.082
-21.3414	-12.065	112.735
-12.3414	-12.065	171.645
-3.341423	-12.065	135.431
5.658577	-12.065	141.472
14.6586	-12.065	124.248
23.6586	-12.065	201.318
-32.3414	-11.065	257.517
-23.3414	-11.065	183.915
-14.3414	-11.065	53.0935
-5.341423	-11.065	81.6634
3.658577	-11.065	88.6727
12.6586	-11.065	13.9094
21.6586	-11.065	172.056
-34.3414	-10.065	269.849
-25.3414	-10.065	184.621
-16.3414	-10.065	153.487
-7.341423	-10.065	61.8958
1.658577	-10.065	177.24
10.6586	-10.065	1.658671
19.6586	-10.065	178.965
-36.3414	-9.065000	288.529
-27.3414	-9.065000	318.835
-18.3414	-9.065000	97.443
-9.341423	-9.065000	82.9456
-0.341423	-9.065000	143.612
8.658577	-9.065000	5.332705
17.6586	-9.065000	196.428
-38.3414	-8.065000	240.679
-29.3414	-8.065000	268.294
-20.3414	-8.065000	148.505
-11.3414	-8.065000	223.248
-2.341423	-8.065000	41.6252
6.658577	-8.065000	159.956
15.6586	-8.065000	92.8447
24.6586	-8.065000	12.3623
-31.3414	-7.065000	280.904
-22.3414	-7.065000	35.5901
-13.3414	-7.065000	176.063
-4.341423	-7.065000	13.5356
4.658577	-7.065000	162.28
13.6586	-7.065000	128.721
22.6586	-7.065000	186.343
-33.3414	-6.065000	325.511
-24.3414	-6.065000	234.144
-15.3414	-6.065000	280.53
-6.341423	-6.065000	108.887
2.658577	-6.065000	61.8298
11.6586	-6.065000	139.257
20.6586	-6.065000	194.346
-35.3414	-5.065000	241.557
-26.3414	-5.065000	180.906
-17.3414	-5.065000	10.4698
-8.341423	-5.065000	230.367
0.658577	-5.065000	64.3305
9.658577	-5.065000	56.0164
18.6586	-5.065000	205.827
-37.3414	-4.065000	225.349
-28.3414	-4.065000	103.878
-19.3414	-4.065000	70.669
-10.3414	-4.065000	186.291
-1.341423	-4.065000	17.5321
7.658577	-4.065000	134.896
16.6586	-4.065000	95.7353
-39.3414	-3.065000	5.013310
-30.3414	-3.065000	236.863
-21.3414	-3.065000	223.485
-12.3414	-3.065000	163.06
-3.341423	-3.065000	34.6119
5.658577	-3.065000	172.824
14.6586	-3.065000	222.083
23.6586	-3.065000	138.948
-32.3414	-2.065000	10.4021
-23.3414	-2.065000	239.819
-14.3414	-2.065000	270.899
-5.341423	-2.065000	231.26
3.658577	-2.065000	58.9937
12.6586	-2.065000	243.313
21.6586	-2.065000	9.523004
-34.3414	-1.065000	54.7691
-25.3414	-1.065000	266.784
-16.3414	-1.065000	172.503
-7.341423	-1.065000	139.049
1.658577	-1.065000	249.687
10.6586	-1.065000	164.513
19.6586	-1.065000	232.197
-36.3414	-0.065000	52.2954
-27.3414	-0.065000	4.039537
-18.3414	-0.065000	149.034
-9.341423	-0.065000	132.853
-0.341423	-0.065000	250.471
8.658577	-0.065000	125.858
17.6586	-0.065000	191.352
-38.3414	0.935000	52.1604
-29.3414	0.935000	12.7907
-20.3414	0.935000	76.6481
-11.3414	0.935000	193.107
-2.341423	0.935000	282.17
6.658577	0.935000	269.151
15.6586	0.935000	167.101
24.6586	0.935000	136.757
-31.3414	1.935000	188.364
-22.3414	1.935000	292.385
-13.3414	1.935000	354.845
-4.341423	1.935000	220.603
4.658577	1.935000	141.668
13.6586	1.935000	224.04
22.6586	1.935000	218.779
-33.3414	2.935000	88.8128
-24.3414	2.935000	148.774
-15.3414	2.935000	4.416778
-6.341423	2.935000	202.804
2.658577	2.935000	197.206
11.6586	2.935000	271.169
20.6586	2.935000	57.0488
-35.3414	3.935000	184.252
-26.3414	3.935000	240.293
-17.3414	3.935000	173.666
-8.341423	3.935000	180.607
0.658577	3.935000	303.295
9.658577	3.935000	287.756
18.6586	3.935000	241.147
-37.3414	4.935000	253.858
-28.3414	4.935000	96.8418
-19.3414	4.935000	273.98
-10.3414	4.935000	241.121
-1.341423	4.935000	275.219
7.658577	4.935000	264.955
16.6586	4.935000	233.291
-39.3414	5.935000	350.589
-30.3414	5.935000	21.4967
-21.3414	5.935000	39.1367
-12.3414	5.935000	55.572
-3.341423	5.935000	192.386
5.658577	5.935000	104.373
14.6586	5.935000	275.061
23.6586	5.935000	172.595
-32.3414	6.935000	241.581
-23.3414	6.935000	126.86
-14.3414	6.935000	258.063
-5.341423	6.935000	62.0472
3.658577	6.935000	32.0652
12.6586	6.935000	286.294
21.6586	6.935000	273.706
-34.3414	7.935000	282.228
-25.3414	7.935000	192.398
-16.3414	7.935000	213.71
-7.341423	7.935000	109.385
1.658577	7.935000	194.719
10.6586	7.935000	216.984
19.6586	7.935000	9.798481
-36.3414	8.935000	274.306
-27.3414	8.935000	182.745
-18.3414	8.935000	199.774
-9.341423	8.935000	100.909
-0.341423	8.935000	273.008
8.658577	8.935000	148.275
17.6586	8.935000	158.877
-38.3414	9.935000	233.952
-29.3414	9.935000	256.19
-20.3414	9.935000	179.282
-11.3414	9.935000	124.112
-2.341423	9.935000	181.698
6.658577	9.935000	134.194
15.6586	9.935000	1.728916
24.6586	9.935000	11.581
-31.3414	10.935	324.368
-22.3414	10.935	162.603
-13.3414	10.935	189.469
-4.341423	10.935	267.445
4.658577	10.935	148.179
13.6586	10.935	11.478
22.6586	10.935	93.5715
-33.3414	11.935	194.592
-24.3414	11.935	6.900530
-15.3414	11.935	297.623
-6.341423	11.935	105.771
2.658577	11.935	149.957
11.6586	11.935	229.535
20.6586	11.935	33.3999
-35.3414	12.935	277.721
-26.3414	12.935	33.0901
-17.3414	12.935	146.827
-8.341423	12.935	174.672
0.658577	12.935	200.832
9.658577	12.935	235.707
18.6586	12.935	5.456939
-37.3414	13.935	313.072
-28.3414	13.935	159.879
-19.3414	13.935	207.596
-10.3414	13.935	30.1271
-1.341423	13.935	149.031
7.658577	13.935	221.483
16.6586	13.935	5.737700
-39.3414	14.935	273.084
-30.3414	14.935	219.453
-21.3414	14.935	242.692
-12.3414	14.935	184.977
-3.341423	14.935	83.1344
5.658577	14.935	23.8786
14.6586	14.935	0.000000
23.6586	14.935	8.666229
-32.3414	15.935	263.302
-23.3414	15.935	8.103071
-14.3414	15.935	254.663
-5.341423	15.935	90.4932
3.658577	15.935	62.5949
12.6586	15.935	72.5924
21.6586	15.935	2.141288
24.6586	15.935	2.352299

File: 2D pos.txt
#XList		#YList		#IList
-39.3414	-21.065	2713.71
-30.3414	-21.065	2704.52
-21.3414	-21.065	2707.62
-12.3414	-21.065	2701.04
-3.341423	-21.065	2719.75
5.658577	-21.065	2714.98
14.6586	-21.065	2699.59
23.6586	-21.065	2650
-32.3414	-20.065	2698.93
-23.3414	-20.065	2701.46
-14.3414	-20.065	2700.12
-5.341423	-20.065	2707.64
3.658577	-20.065	2714.48
12.6586	-20.065	2703.74
21.6586	-20.065	2699.42
-34.3414	-19.065	2709.77
-25.3414	-19.065	2701.65
-16.3414	-19.065	2699.33
-7.341423	-19.065	2703.2
1.658577	-19.065	2713.46
10.6586	-19.065	2710.58
19.6586	-19.065	2702.79
-36.3414	-18.065	2709.55
-27.3414	-18.065	2704.51
-18.3414	-18.065	2694.89
-9.341423	-18.065	2707.6
-0.341423	-18.065	2706.37
8.658577	-18.065	2692.75
17.6586	-18.065	2706.41
-38.3414	-17.065	2704.9
-29.3414	-17.065	2703.14
-20.3414	-17.065	2703.49
-11.3414	-17.065	2700.57
-2.341423	-17.065	2708.66
6.658577	-17.065	2701.65
15.6586	-17.065	2701.91
24.6586	-17.065	2699.89
-31.3414	-16.065	2701.89
-22.3414	-16.065	2702.58
-13.3414	-16.065	2695.22
-4.341423	-16.065	2706.13
4.658577	-16.065	2714.44
13.6586	-16.065	2704.99
22.6586	-16.065	2700.4
-33.3414	-15.065	2695.35
-24.3414	-15.065	2702.64
-15.3414	-15.065	2701.74
-6.341423	-15.065	2704.14
2.658577	-15.065	2712.49
11.6586	-15.065	2702
20.6586	-15.065	2707.69
-35.3414	-14.065	2699.64
-26.3414	-14.065	2700.98
-17.3414	-14.065	2701.86
-8.341423	-14.065	2706.4
0.658577	-14.065	2707.65
9.658577	-14.065	2703.64
18.6586	-14.065	2705.92
-37.3414	-13.065	2699.82
-28.3414	-13.065	2703.32
-19.3414	-13.065	2708.81
-10.3414	-13.065	2704.63
-1.341423	-13.065	2709.71
7.658577	-13.065	2700.62
16.6586	-13.065	2704.95
-39.3414	-12.065	2701.16
-30.3414	-12.065	2704.21
-21.3414	-12.065	2713.73
-12.3414	-12.065	2704.64
-3.341423	-12.065	2705.94
5.658577	-12.065	2713.71
14.6586	-12.065	2704.87
23.6586	-12.065	2709.58
-32.3414	-11.065	2703.25
-23.3414	-11.065	2700.76
-14.3414	-11.065	2706.61
-5.341423	-11.065	2709.81
3.658577	-11.065	2714.47
12.6586	-11.065	2704.28
21.6586	-11.065	2717.83
-34.3414	-10.065	2700.82
-25.3414	-10.065	2704.25
-16.3414	-10.065	2708.24
-7.341423	-10.065	2710.92
1.658577	-10.065	2706.21
10.6586	-10.065	2650
19.6586	-10.065	2715.72
-36.3414	-9.065000	2700.7
-27.3414	-9.065000	2701.49
-18.3414	-9.065000	2706.36
-9.341423	-9.065000	2700.97
-0.341423	-9.065000	2705.26
8.658577	-9.065000	2699.64
17.6586	-9.065000	2712.66
-38.3414	-8.065000	2703.57
-29.3414	-8.065000	2702.03
-20.3414	-8.065000	2713.31
-11.3414	-8.065000	2703.09
-2.341423	-8.065000	2715.4
6.658577	-8.065000	2696.59
15.6586	-8.065000	2707.59
24.6586	-8.065000	2711.48
-31.3414	-7.065000	2703.73
-22.3414	-7.065000	2707.99
-13.3414	-7.065000	2703.02
-4.341423	-7.065000	2706.63
4.658577	-7.065000	2702.17
13.6586	-7.065000	2698.4
22.6586	-7.065000	2710.37
-33.3414	-6.065000	2700.44
-24.3414	-6.065000	2693.33
-15.3414	-6.065000	2704.04
-6.341423	-6.065000	2701.39
2.658577	-6.065000	2704.51
11.6586	-6.065000	2705.33
20.6586	-6.065000	2716.68
-35.3414	-5.065000	2704.42
-26.3414	-5.065000	2702.75
-17.3414	-5.065000	2698.47
-8.341423	-5.065000	2707.92
0.658577	-5.065000	2701.74
9.658577	-5.065000	2711.07
18.6586	-5.065000	2712.41
-37.3414	-4.065000	2704.98
-28.3414	-4.065000	2699.63
-19.3414	-4.065000	2698.41
-10.3414	-4.065000	2707.35
-1.341423	-4.065000	2723.27
7.658577	-4.065000	2697.55
16.6586	-4.065000	2699.31
-39.3414	-3.065000	2650
-30.3414	-3.065000	2692.78
-21.3414	-3.065000	2698.84
-12.3414	-3.065000	2706.88
-3.341423	-3.065000	2702.91
5.658577	-3.065000	2712
14.6586	-3.065000	2696.95
23.6586	-3.065000	2710.85
-32.3414	-2.065000	2705.26
-23.3414	-2.065000	2699.68
-14.3414	-2.065000	2706.24
-5.341423	-2.065000	2709.84
3.658577	-2.065000	2695.8
12.6586	-2.065000	2705.66
21.6586	-2.065000	2696.21
-34.3414	-1.065000	2719.73
-25.3414	-1.065000	2709.29
-16.3414	-1.065000	2713.11
-7.341423	-1.065000	2708.54
1.658577	-1.065000	2698.27
10.6586	-1.065000	2702.96
19.6586	-1.065000	2704.59
-36.3414	-0.065000	2721.1
-27.3414	-0.065000	2750
-18.3414	-0.065000	2707
-9.341423	-0.065000	2712.43
-0.341423	-0.065000	2694.13
8.658577	-0.065000	2704.83
17.6586	-0.065000	2705.8
-38.3414	0.935000	2721.26
-29.3414	0.935000	2704.76
-20.3414	0.935000	2706.69
-11.3414	0.935000	2696.76
-2.341423	0.935000	2701.62
6.658577	0.935000	2700.75
15.6586	0.935000	2701.84
24.6586	0.935000	2709.51
-31.3414	1.935000	2704.6
-22.3414	1.935000	2705.78
-13.3414	1.935000	2704.39
-4.341423	1.935000	2692.48
4.658577	1.935000	2712.28
13.6586	1.935000	2694.79
22.6586	1.935000	2694.79
-33.3414	2.935000	2712.52
-24.3414	2.935000	2710.71
-15.3414	2.935000	2737.92
-6.341423	2.935000	2704.69
2.658577	2.935000	2707.31
11.6586	2.935000	2704.48
20.6586	2.935000	2706.55
-35.3414	3.935000	2706.15
-26.3414	3.935000	2702.87
-17.3414	3.935000	2701.13
-8.341423	3.935000	2711.96
0.658577	3.935000	2698.31
9.658577	3.935000	2700.69
18.6586	3.935000	2694.46
-37.3414	4.935000	2693.83
-28.3414	4.935000	2703.38
-19.3414	4.935000	2705.65
-10.3414	4.935000	2708.27
-1.341423	4.935000	2701.63
7.658577	4.935000	2705.95
16.6586	4.935000	2699.25
-39.3414	5.935000	2706.49
-30.3414	5.935000	2698.86
-21.3414	5.935000	2705.01
-12.3414	5.935000	2700.61
-3.341423	5.935000	2699.93
5.658577	5.935000	2706.3
14.6586	5.935000	2702.3
23.6586	5.935000	2705.29
-32.3414	6.935000	2703.54
-23.3414	6.935000	2709.13
-14.3414	6.935000	2704.14
-5.341423	6.935000	2708.13
3.658577	6.935000	2711.64
12.6586	6.935000	2700.6
21.6586	6.935000	2696.8
-34.3414	7.935000	2705.71
-25.3414	7.935000	2705.98
-16.3414	7.935000	2702.96
-7.341423	7.935000	2699.71
1.658577	7.935000	2701.12
10.6586	7.935000	2697.09
19.6586	7.935000	2715.03
-36.3414	8.935000	2699.91
-27.3414	8.935000	2704.82
-18.3414	8.935000	2702.5
-9.341423	8.935000	2703.15
-0.341423	8.935000	2693.91
8.658577	8.935000	2711.23
17.6586	8.935000	2698.79
-38.3414	9.935000	2701.36
-29.3414	9.935000	2700.32
-20.3414	9.935000	2704.44
-11.3414	9.935000	2705.89
-2.341423	9.935000	2704.94
6.658577	9.935000	2718.49
15.6586	9.935000	2710.02
24.6586	9.935000	2688.83
-31.3414	10.935	2702.91
-22.3414	10.935	2701.19
-13.3414	10.935	2703.6
-4.341423	10.935	2702.14
4.658577	10.935	2717.89
13.6586	10.935	2697.77
22.6586	10.935	2694.49
-33.3414	11.935	2703.54
-24.3414	11.935	2701.52
-15.3414	11.935	2701.46
-6.341423	11.935	2701.14
2.658577	11.935	2710.4
11.6586	11.935	2707.6
20.6586	11.935	2698
-35.3414	12.935	2703.86
-26.3414	12.935	2702.68
-17.3414	12.935	2705.24
-8.341423	12.935	2712.18
0.658577	12.935	2708.66
9.658577	12.935	2703.75
18.6586	12.935	2650
-37.3414	13.935	2701.22
-28.3414	13.935	2701.82
-19.3414	13.935	2704.51
-10.3414	13.935	2701.78
-1.341423	13.935	2706.52
7.658577	13.935	2701.09
16.6586	13.935	2650
-39.3414	14.935	2693.59
-30.3414	14.935	2704.43
-21.3414	14.935	2701.98
-12.3414	14.935	2699.3
-3.341423	14.935	2698.34
5.658577	14.935	2709.81
14.6586	14.935	2650
23.6586	14.935	2650
-32.3414	15.935	2699.82
-23.3414	15.935	2694.39
-14.3414	15.935	2694.68
-5.341423	15.935	2715.78
3.658577	15.935	2699.38
12.6586	15.935	2695.61
21.6586	15.935	2650
24.6586	15.935	2650