Folder: graphene-production/data/derived_data/raman/20170920_Gr-NH2_for_Radisurf/20170920 Gr-NH for Radisurf map 1 (part 5)

File: G int.txt
#XList		#YList		#IList
-28	-22	1.257557
-9.000000	-22	421.322
10	-22	355.727
29	-22	40.0319
-18.5	-21.5	291.897
0.500000	-21.5	262.003
19.5	-21.5	421.579
-28	-21	1.654783
-9.000000	-21	319.02
10	-21	231.748
29	-21	167.328
-18.5	-20.5	320.764
0.500000	-20.5	20.5874
19.5	-20.5	373.913
-28	-20	2.002391
-9.000000	-20	278.353
10	-20	262.731
29	-20	290.872
-18.5	-19.5	360.966
0.500000	-19.5	4.665486
19.5	-19.5	362.461
-28	-19	5.199876
-9.000000	-19	114.333
10	-19	310.838
29	-19	347.219
-18.5	-18.5	338.793
0.500000	-18.5	4.463345
19.5	-18.5	388.249
-28	-18	11.3701
-9.000000	-18	6.732979
10	-18	327.688
29	-18	176.537
-18.5	-17.5	211.575
0.500000	-17.5	189.055
19.5	-17.5	387.679
-28	-17	180.57
-9.000000	-17	6.323810
10	-17	350.028
29	-17	164.953
-18.5	-16.5	351.362
0.500000	-16.5	207.195
19.5	-16.5	375.556
-28	-16	174.537
-9.000000	-16	127.098
10	-16	300.64
29	-16	223.662
-18.5	-15.5	330.467
0.500000	-15.5	271.481
19.5	-15.5	223.555
-28	-15	258.007
-9.000000	-15	394.989
10	-15	337.926
29	-15	180.8
-18.5	-14.5	382.759
0.500000	-14.5	417.113
19.5	-14.5	37.5496
-28	-14	7.276655
-9.000000	-14	264.624
10	-14	280.603
29	-14	287.618
-18.5	-13.5	220.27
0.500000	-13.5	312.763
19.5	-13.5	10.9943
-28	-13	6.933008
-9.000000	-13	345.646
10	-13	78.7542
29	-13	362.017
-18.5	-12.5	48.6205
0.500000	-12.5	202.412
19.5	-12.5	12.5994
-28	-12	14.6802
-9.000000	-12	376.466
10	-12	18.3136
29	-12	355.327
-18.5	-11.5	365.745
0.500000	-11.5	137.197
19.5	-11.5	122.326
-28	-11	11.2319
-9.000000	-11	376.342
10	-11	315.936
29	-11	21.7011
-18.5	-10.5	338.876
0.500000	-10.5	278.814
19.5	-10.5	440.946
-28	-10	190.969
-9.000000	-10	330.803
10	-10	284.59
29	-10	3.545895
-18.5	-9.500000	370.918
0.500000	-9.500000	331.645
19.5	-9.500000	370.038
-28	-9.000000	155.714
-9.000000	-9.000000	296.909
10	-9.000000	447.65
29	-9.000000	33.1786
-18.5	-8.500000	356.33
0.500000	-8.500000	360.341
19.5	-8.500000	454.559
-28	-8.000000	24.9095
-9.000000	-8.000000	274.136
10	-8.000000	443.994
29	-8.000000	383.797
-18.5	-7.500000	345.048
0.500000	-7.500000	390.618
19.5	-7.500000	77.1676
-28	-7.000000	32.188
-9.000000	-7.000000	310.715
10	-7.000000	282.062
29	-7.000000	280.348
-18.5	-6.500000	233.36
0.500000	-6.500000	372.539
19.5	-6.500000	272.99
-28	-6.000000	60.6172
-9.000000	-6.000000	225.444
10	-6.000000	271.055
29	-6.000000	300.606
-18.5	-5.500000	249.974
0.500000	-5.500000	216.639
19.5	-5.500000	211.514
-28	-5.000000	96.2403
-9.000000	-5.000000	10.7867
10	-5.000000	302.326
29	-5.000000	125.076
-18.5	-4.500000	277.513
0.500000	-4.500000	233.523
19.5	-4.500000	184.931
-28	-4.000000	80.1965
-9.000000	-4.000000	1.309967
10	-4.000000	292.075
29	-4.000000	430.063
-18.5	-3.500000	260.193
0.500000	-3.500000	302.781
19.5	-3.500000	154.591
-28	-3.000000	84.1199
-9.000000	-3.000000	3.303355
10	-3.000000	322.034
29	-3.000000	251.85
-18.5	-2.500000	260.242
0.500000	-2.500000	274.962
19.5	-2.500000	169.669
-28	-2.000000	91.0962
-9.000000	-2.000000	33.8457
10	-2.000000	254.232
29	-2.000000	327.533
-18.5	-1.500000	209.824
0.500000	-1.500000	287.815
19.5	-1.500000	155.109
-28	-1.000000	100.26
-9.000000	-1.000000	333.456
10	-1.000000	279.037
29	-1.000000	302.452
-18.5	-0.500000	282.451
0.500000	-0.500000	127.516
19.5	-0.500000	143.103
-28	0.000000	84.2761
-9.000000	0.000000	309.785
10	0.000000	324.784
29	0.000000	269.212
-18.5	0.500000	323.301
0.500000	0.500000	236.318
19.5	0.500000	151.491
-28	1.000000	93.1016
-9.000000	1.000000	278.464
10	1.000000	375.713
29	1.000000	256.083
-18.5	1.500000	330.571
0.500000	1.500000	240.667
19.5	1.500000	166.11
-28	2.000000	243.968
-9.000000	2.000000	245.86
10	2.000000	359.257
29	2.000000	315.985
-18.5	2.500000	305.378
0.500000	2.500000	230.42
19.5	2.500000	152.061
-28	3.000000	295.667
-9.000000	3.000000	224.939
10	3.000000	313.518
29	3.000000	308.037
-18.5	3.500000	368.998
0.500000	3.500000	258.561
19.5	3.500000	182.234
-28	4.000000	300.015
-9.000000	4.000000	213.974
10	4.000000	224.956
29	4.000000	302.93
-18.5	4.500000	361.32
0.500000	4.500000	301.649
19.5	4.500000	161.811
-28	5.000000	297.585
-9.000000	5.000000	255.639
10	5.000000	181.779
29	5.000000	249.433
-18.5	5.500000	359.795
0.500000	5.500000	267.015
19.5	5.500000	159.358
-28	6.000000	215.567
-9.000000	6.000000	285.39
10	6.000000	176.65
29	6.000000	169.931
-18.5	6.500000	316.055
0.500000	6.500000	260.487
19.5	6.500000	226.898
-28	7.000000	225.741
-9.000000	7.000000	231.018
10	7.000000	223.923
29	7.000000	206.535
-18.5	7.500000	290.328
0.500000	7.500000	248.844
19.5	7.500000	277.606
-28	8.000000	16.9496
-9.000000	8.000000	196.045
10	8.000000	235.721
29	8.000000	174.807
-18.5	8.500000	321.625
0.500000	8.500000	276.763
19.5	8.500000	163.865
-28	9.000000	2.475340
-9.000000	9.000000	238.529
10	9.000000	337.485
29	9.000000	166.262
-18.5	9.500000	196.03
0.500000	9.500000	358.513
19.5	9.500000	269.435
-28	10	1.818895
-9.000000	10	218.959
10	10	252.827
29	10	175.786
-18.5	10.5	20.4375
0.500000	10.5	391.921
19.5	10.5	287.875
-28	11	11.6988
-9.000000	11	260.537
10	11	234.176
29	11	191.55
-18.5	11.5	44.0242
0.500000	11.5	397.097
19.5	11.5	250.429
-28	12	18.9654
-9.000000	12	270.168
10	12	198.405
29	12	164.554
-18.5	12.5	6.253254
0.500000	12.5	360.369
19.5	12.5	255.691
-28	13	2.770619
-9.000000	13	303.582
10	13	272.073
29	13	233.201
-18.5	13.5	0.501058
0.500000	13.5	332.748
19.5	13.5	264.304
-28	14	2.205644
-9.000000	14	328.156
10	14	367.349
29	14	214.618
-18.5	14.5	0.000000
0.500000	14.5	79.7131
19.5	14.5	293.176
-28	15	0.884617
-9.000000	15	224.299
10	15	231.551
29	15	205.283
-18.5	15.5	8.734245
0.500000	15.5	182.801
19.5	15.5	271.694
-28	16	1.678323
-9.000000	16	258.356
10	16	304.995
29	16	307.616
-18.5	16.5	18.3473
0.500000	16.5	16.73
19.5	16.5	280.896
-28	17	0.020197
-9.000000	17	354.031
10	17	95.8274
29	17	273.746
-18.5	17.5	55.7744
0.500000	17.5	88.0752
19.5	17.5	197.756
-28	18	3.946100
-9.000000	18	250.128
10	18	51.2555
29	18	105.359
-18.5	18.5	0.490992
0.500000	18.5	130.337
19.5	18.5	225.955
-28	19	46.3451
-9.000000	19	221.607
10	19	165.41
29	19	3.596144
-18.5	19.5	3.995319
0.500000	19.5	381.764
19.5	19.5	374.268
-28	20	446.537
-9.000000	20	39.8284
10	20	129.902
29	20	2.793086
38	20	3.475601

File: G pos.txt
#XList		#YList		#IList
-28	-22	1585.82
-9.000000	-22	1570.89
10	-22	1573.9
29	-22	1581.35
-18.5	-21.5	1577.28
0.500000	-21.5	1571.79
19.5	-21.5	1575.06
-28	-21	1600
-9.000000	-21	1575.08
10	-21	1575.93
29	-21	1579.05
-18.5	-20.5	1574.26
0.500000	-20.5	1582.3
19.5	-20.5	1576.04
-28	-20	1600
-9.000000	-20	1574.15
10	-20	1572.35
29	-20	1579.39
-18.5	-19.5	1570.25
0.500000	-19.5	1582.48
19.5	-19.5	1576.91
-28	-19	1582
-9.000000	-19	1583.04
10	-19	1570.39
29	-19	1578.94
-18.5	-18.5	1574.72
0.500000	-18.5	1586.07
19.5	-18.5	1575.03
-28	-18	1585.55
-9.000000	-18	1584.97
10	-18	1570
29	-18	1585.11
-18.5	-17.5	1578.5
0.500000	-17.5	1579.78
19.5	-17.5	1573.45
-28	-17	1580.42
-9.000000	-17	1589.1
10	-17	1571.12
29	-17	1583.65
-18.5	-16.5	1574.86
0.500000	-16.5	1579.68
19.5	-16.5	1578.46
-28	-16	1580.35
-9.000000	-16	1582.75
10	-16	1571.82
29	-16	1579.63
-18.5	-15.5	1570.79
0.500000	-15.5	1580.05
19.5	-15.5	1581.45
-28	-15	1578.5
-9.000000	-15	1574.28
10	-15	1572.53
29	-15	1580.36
-18.5	-14.5	1570.6
0.500000	-14.5	1578.71
19.5	-14.5	1590.93
-28	-14	1584.24
-9.000000	-14	1573.16
10	-14	1572.39
29	-14	1579.59
-18.5	-13.5	1570.83
0.500000	-13.5	1577.11
19.5	-13.5	1586.57
-28	-13	1577.89
-9.000000	-13	1570
10	-13	1586.83
29	-13	1579.13
-18.5	-12.5	1570
0.500000	-12.5	1577.95
19.5	-12.5	1574.32
-28	-12	1588.67
-9.000000	-12	1570
10	-12	1584.02
29	-12	1577.81
-18.5	-11.5	1570
0.500000	-11.5	1580.2
19.5	-11.5	1577.41
-28	-11	1584.08
-9.000000	-11	1570
10	-11	1577.38
29	-11	1586.77
-18.5	-10.5	1570
0.500000	-10.5	1572.81
19.5	-10.5	1578.78
-28	-10	1586.26
-9.000000	-10	1570
10	-10	1577.49
29	-10	1583.68
-18.5	-9.500000	1570
0.500000	-9.500000	1575.36
19.5	-9.500000	1578.51
-28	-9.000000	1584.85
-9.000000	-9.000000	1570
10	-9.000000	1579.13
29	-9.000000	1581.69
-18.5	-8.500000	1570
0.500000	-8.500000	1576.19
19.5	-8.500000	1578.46
-28	-8.000000	1582.95
-9.000000	-8.000000	1572.14
10	-8.000000	1578.18
29	-8.000000	1578.07
-18.5	-7.500000	1570.25
0.500000	-7.500000	1574.88
19.5	-7.500000	1577.6
-28	-7.000000	1577.63
-9.000000	-7.000000	1575.17
10	-7.000000	1579.02
29	-7.000000	1579.31
-18.5	-6.500000	1573.19
0.500000	-6.500000	1573.91
19.5	-6.500000	1573.02
-28	-6.000000	1580.17
-9.000000	-6.000000	1570.55
10	-6.000000	1574.63
29	-6.000000	1578.26
-18.5	-5.500000	1578.13
0.500000	-5.500000	1582.07
19.5	-5.500000	1576.73
-28	-5.000000	1581.8
-9.000000	-5.000000	1591.01
10	-5.000000	1578.84
29	-5.000000	1583.99
-18.5	-4.500000	1578.57
0.500000	-4.500000	1582.64
19.5	-4.500000	1570
-28	-4.000000	1583.4
-9.000000	-4.000000	1600
10	-4.000000	1579.23
29	-4.000000	1574.84
-18.5	-3.500000	1576.78
0.500000	-3.500000	1578.25
19.5	-3.500000	1577.34
-28	-3.000000	1582
-9.000000	-3.000000	1586.38
10	-3.000000	1580.57
29	-3.000000	1578.02
-18.5	-2.500000	1578.97
0.500000	-2.500000	1577.05
19.5	-2.500000	1576.21
-28	-2.000000	1580.54
-9.000000	-2.000000	1570
10	-2.000000	1570.62
29	-2.000000	1574.96
-18.5	-1.500000	1583.49
0.500000	-1.500000	1576.78
19.5	-1.500000	1577.82
-28	-1.000000	1579.45
-9.000000	-1.000000	1570.58
10	-1.000000	1570
29	-1.000000	1575.43
-18.5	-0.500000	1575.02
0.500000	-0.500000	1580.02
19.5	-0.500000	1579.45
-28	0.000000	1581.78
-9.000000	0.000000	1571.26
10	0.000000	1572.9
29	0.000000	1575.06
-18.5	0.500000	1578.9
0.500000	0.500000	1570.55
19.5	0.500000	1578.11
-28	1.000000	1582.07
-9.000000	1.000000	1576.23
10	1.000000	1576
29	1.000000	1570.59
-18.5	1.500000	1579.24
0.500000	1.500000	1575.52
19.5	1.500000	1577.88
-28	2.000000	1580.98
-9.000000	2.000000	1578.9
10	2.000000	1576.62
29	2.000000	1576.15
-18.5	2.500000	1573.67
0.500000	2.500000	1580.81
19.5	2.500000	1578.11
-28	3.000000	1582.72
-9.000000	3.000000	1581.89
10	3.000000	1576.46
29	3.000000	1577.74
-18.5	3.500000	1575.38
0.500000	3.500000	1575.86
19.5	3.500000	1574.84
-28	4.000000	1580.23
-9.000000	4.000000	1572.6
10	4.000000	1582.79
29	4.000000	1578.15
-18.5	4.500000	1576.38
0.500000	4.500000	1580.56
19.5	4.500000	1576.09
-28	5.000000	1583.64
-9.000000	5.000000	1580.59
10	5.000000	1582.46
29	5.000000	1578.06
-18.5	5.500000	1579.43
0.500000	5.500000	1577.8
19.5	5.500000	1577.09
-28	6.000000	1580.84
-9.000000	6.000000	1574.94
10	6.000000	1581.18
29	6.000000	1577.99
-18.5	6.500000	1580.6
0.500000	6.500000	1580.21
19.5	6.500000	1576.78
-28	7.000000	1580.24
-9.000000	7.000000	1571.5
10	7.000000	1579.74
29	7.000000	1574.28
-18.5	7.500000	1580.87
0.500000	7.500000	1579.79
19.5	7.500000	1576.06
-28	8.000000	1592.67
-9.000000	8.000000	1576.76
10	8.000000	1581.27
29	8.000000	1570
-18.5	8.500000	1580.87
0.500000	8.500000	1574.33
19.5	8.500000	1575.38
-28	9.000000	1600
-9.000000	9.000000	1575.45
10	9.000000	1578.73
29	9.000000	1576.32
-18.5	9.500000	1580.55
0.500000	9.500000	1576.76
19.5	9.500000	1573.29
-28	10	1570
-9.000000	10	1574.81
10	10	1580.64
29	10	1578.1
-18.5	10.5	1586.65
0.500000	10.5	1577.26
19.5	10.5	1573.83
-28	11	1584.69
-9.000000	11	1578.96
10	11	1581.86
29	11	1577.5
-18.5	11.5	1587.24
0.500000	11.5	1576.94
19.5	11.5	1580.12
-28	12	1582.21
-9.000000	12	1577.33
10	12	1581.45
29	12	1574.29
-18.5	12.5	1594.07
0.500000	12.5	1577.61
19.5	12.5	1580.66
-28	13	1576.39
-9.000000	13	1578
10	13	1580.69
29	13	1575.03
-18.5	13.5	1570
0.500000	13.5	1576.49
19.5	13.5	1579.72
-28	14	1582.86
-9.000000	14	1577.81
10	14	1579.97
29	14	1577.61
-18.5	14.5	1600
0.500000	14.5	1586.76
19.5	14.5	1580.27
-28	15	1600
-9.000000	15	1580.85
10	15	1581.46
29	15	1576.46
-18.5	15.5	1586.18
0.500000	15.5	1578.12
19.5	15.5	1576.06
-28	16	1570
-9.000000	16	1575.52
10	16	1577.5
29	16	1573.62
-18.5	16.5	1573.6
0.500000	16.5	1590.16
19.5	16.5	1579.71
-28	17	1570
-9.000000	17	1574.86
10	17	1585.09
29	17	1570
-18.5	17.5	1575.65
0.500000	17.5	1579.72
19.5	17.5	1582.08
-28	18	1600
-9.000000	18	1580.95
10	18	1585.12
29	18	1579.98
-18.5	18.5	1600
0.500000	18.5	1578.26
19.5	18.5	1581.56
-28	19	1582.88
-9.000000	19	1578.08
10	19	1575.61
29	19	1576.97
-18.5	19.5	1590.26
0.500000	19.5	1579.85
19.5	19.5	1578.77
-28	20	1579.51
-9.000000	20	1582.46
10	20	1583.52
29	20	1570
38	20	1572.58

File: SiO2 FWHM.txt
#XList		#YList		#IList
-28	-22	63.4213
-9.000000	-22	9.963629
10	-22	0.639823
29	-22	59.9462
-18.5	-21.5	52.1844
0.500000	-21.5	46.1068
19.5	-21.5	97.1443
-28	-21	58.081
-9.000000	-21	37.5967
10	-21	0.639823
29	-21	42.8826
-18.5	-20.5	39.8863
0.500000	-20.5	57.0014
19.5	-20.5	34.3053
-28	-20	58.6601
-9.000000	-20	52.0623
10	-20	0.876469
29	-20	309.451
-18.5	-19.5	38.7562
0.500000	-19.5	57.9154
19.5	-19.5	31.9258
-28	-19	61.2412
-9.000000	-19	52.9558
10	-19	43.2029
29	-19	28.5345
-18.5	-18.5	55.0865
0.500000	-18.5	60.0497
19.5	-18.5	0.893227
-28	-18	60.5049
-9.000000	-18	57.0673
10	-18	211.305
29	-18	47.6496
-18.5	-17.5	23.3725
0.500000	-17.5	58.021
19.5	-17.5	60.1559
-28	-17	28.695
-9.000000	-17	59.8113
10	-17	24.4258
29	-17	54.4432
-18.5	-16.5	32.243
0.500000	-16.5	116.262
19.5	-16.5	59.6454
-28	-16	57.8671
-9.000000	-16	53.2859
10	-16	40.0022
29	-16	19.12
-18.5	-15.5	30.3469
0.500000	-15.5	28.6341
19.5	-15.5	60.9954
-28	-15	42.8588
-9.000000	-15	39.7965
10	-15	55.345
29	-15	1.215295
-18.5	-14.5	47.4506
0.500000	-14.5	57.2162
19.5	-14.5	60.7485
-28	-14	62.7619
-9.000000	-14	47.0724
10	-14	68.9848
29	-14	0.789099
-18.5	-13.5	53.2185
0.500000	-13.5	0.639823
19.5	-13.5	58.3641
-28	-13	58.0668
-9.000000	-13	51.73
10	-13	52.965
29	-13	0.907874
-18.5	-12.5	54.1408
0.500000	-12.5	83.5895
19.5	-12.5	59.5783
-28	-12	57.4207
-9.000000	-12	30.0713
10	-12	57.2068
29	-12	39.6525
-18.5	-11.5	25.8467
0.500000	-11.5	42.0288
19.5	-11.5	53.488
-28	-11	57.1405
-9.000000	-11	0.639823
10	-11	49.0062
29	-11	56.6049
-18.5	-10.5	0.639823
0.500000	-10.5	22.7188
19.5	-10.5	49.2117
-28	-10	55.9175
-9.000000	-10	0.639823
10	-10	46.7043
29	-10	59.7328
-18.5	-9.500000	10.822
0.500000	-9.500000	32.1793
19.5	-9.500000	36.2903
-28	-9.000000	49.3708
-9.000000	-9.000000	0.681413
10	-9.000000	46.0726
29	-9.000000	59.0789
-18.5	-8.500000	0.667179
0.500000	-8.500000	0.639823
19.5	-8.500000	50.6253
-28	-8.000000	55.4659
-9.000000	-8.000000	39.745
10	-8.000000	40.4069
29	-8.000000	48.0518
-18.5	-7.500000	0.915794
0.500000	-7.500000	0.639823
19.5	-7.500000	50.275
-28	-7.000000	58.062
-9.000000	-7.000000	0.751923
10	-7.000000	54.1585
29	-7.000000	41.7524
-18.5	-6.500000	0.639823
0.500000	-6.500000	60.8272
19.5	-6.500000	49.9219
-28	-6.000000	56.5592
-9.000000	-6.000000	59.701
10	-6.000000	45.4062
29	-6.000000	57.1714
-18.5	-5.500000	0.646698
0.500000	-5.500000	49.0448
19.5	-5.500000	49.8395
-28	-5.000000	44.0283
-9.000000	-5.000000	63.2588
10	-5.000000	30.2671
29	-5.000000	59.6559
-18.5	-4.500000	32.8731
0.500000	-4.500000	43.7086
19.5	-4.500000	6.841003
-28	-4.000000	42.732
-9.000000	-4.000000	61.1271
10	-4.000000	51.0459
29	-4.000000	40.7872
-18.5	-3.500000	216.408
0.500000	-3.500000	46.2466
19.5	-3.500000	45.2662
-28	-3.000000	44.793
-9.000000	-3.000000	56.6042
10	-3.000000	34.1762
29	-3.000000	48.2651
-18.5	-2.500000	51.2337
0.500000	-2.500000	46.845
19.5	-2.500000	538.91
-28	-2.000000	46.7363
-9.000000	-2.000000	56.5865
10	-2.000000	15.7166
29	-2.000000	29.362
-18.5	-1.500000	52.3129
0.500000	-1.500000	59.5607
19.5	-1.500000	232.337
-28	-1.000000	43.5379
-9.000000	-1.000000	64.8024
10	-1.000000	41.8885
29	-1.000000	48.9591
-18.5	-0.500000	22.3113
0.500000	-0.500000	56.2833
19.5	-0.500000	1.406489
-28	0.000000	56.7733
-9.000000	0.000000	0.639823
10	0.000000	21.5748
29	0.000000	68.7373
-18.5	0.500000	35.7196
0.500000	0.500000	11.49
19.5	0.500000	44.8516
-28	1.000000	52.1947
-9.000000	1.000000	0.639823
10	1.000000	0.834395
29	1.000000	18.1391
-18.5	1.500000	48.0205
0.500000	1.500000	46.329
19.5	1.500000	0.639823
-28	2.000000	0.639823
-9.000000	2.000000	31.581
10	2.000000	0.760350
29	2.000000	39.7527
-18.5	2.500000	31.82
0.500000	2.500000	43.8473
19.5	2.500000	0.640682
-28	3.000000	28.944
-9.000000	3.000000	43.9625
10	3.000000	16.533
29	3.000000	10.0097
-18.5	3.500000	261.874
0.500000	3.500000	0.925093
19.5	3.500000	0.639823
-28	4.000000	32.8254
-9.000000	4.000000	38.8028
10	4.000000	37.2957
29	4.000000	13.2707
-18.5	4.500000	49.6202
0.500000	4.500000	27.5813
19.5	4.500000	0.639823
-28	5.000000	0.639828
-9.000000	5.000000	0.639823
10	5.000000	0.639823
29	5.000000	0.971591
-18.5	5.500000	41.9137
0.500000	5.500000	36.7596
19.5	5.500000	0.698757
-28	6.000000	0.639823
-9.000000	6.000000	27.1356
10	6.000000	42.2882
29	6.000000	49.0716
-18.5	6.500000	0.639823
0.500000	6.500000	39.3746
19.5	6.500000	0.639823
-28	7.000000	58.589
-9.000000	7.000000	32.2575
10	7.000000	0.908234
29	7.000000	38.4956
-18.5	7.500000	0.746300
0.500000	7.500000	0.639823
19.5	7.500000	0.908048
-28	8.000000	57.6874
-9.000000	8.000000	0.639823
10	8.000000	0.639823
29	8.000000	13.8935
-18.5	8.500000	46.805
0.500000	8.500000	0.652667
19.5	8.500000	23.843
-28	9.000000	58.1594
-9.000000	9.000000	36.4546
10	9.000000	0.639823
29	9.000000	216.55
-18.5	9.500000	56.2378
0.500000	9.500000	49.6331
19.5	9.500000	44.937
-28	10	63.1113
-9.000000	10	33.96
10	10	0.639823
29	10	19.0747
-18.5	10.5	57.0853
0.500000	10.5	32.0148
19.5	10.5	57.2427
-28	11	58.964
-9.000000	11	35.5812
10	11	42.3069
29	11	40.8561
-18.5	11.5	58.3635
0.500000	11.5	51.1646
19.5	11.5	0.734489
-28	12	60.0524
-9.000000	12	39.9002
10	12	0.805831
29	12	45.1601
-18.5	12.5	60.5959
0.500000	12.5	48.9098
19.5	12.5	0.673226
-28	13	61.7176
-9.000000	13	0.640390
10	13	43.6977
29	13	46.9309
-18.5	13.5	62.1632
0.500000	13.5	41.3605
19.5	13.5	32.9062
-28	14	63.2357
-9.000000	14	0.639823
10	14	0.639823
29	14	2.835007
-18.5	14.5	63.2128
0.500000	14.5	54.7981
19.5	14.5	0.639823
-28	15	63.8372
-9.000000	15	44.8223
10	15	52.9847
29	15	0.868710
-18.5	15.5	62.3444
0.500000	15.5	56.0636
19.5	15.5	0.639823
-28	16	65.1179
-9.000000	16	47.8275
10	16	46.228
29	16	33.2816
-18.5	16.5	61.9196
0.500000	16.5	60.6481
19.5	16.5	19.2205
-28	17	59.6436
-9.000000	17	21.0131
10	17	55.5259
29	17	49.8404
-18.5	17.5	61.8031
0.500000	17.5	53.0008
19.5	17.5	57.8701
-28	18	62.6771
-9.000000	18	48.3939
10	18	58.3726
29	18	54.4916
-18.5	18.5	61.2031
0.500000	18.5	54.8749
19.5	18.5	1.009151
-28	19	59.6945
-9.000000	19	57.4287
10	19	53.8674
29	19	60.5611
-18.5	19.5	56.1447
0.500000	19.5	27.0433
19.5	19.5	0.712351
-28	20	37.796
-9.000000	20	56.6885
10	20	52.4124
29	20	60.6495
38	20	64.164

File: SiO2 int.txt
#XList		#YList		#IList
-28	-22	43.9119
-9.000000	-22	5.780777
10	-22	10.5345
29	-22	25.5241
-18.5	-21.5	20.0054
0.500000	-21.5	10.2346
19.5	-21.5	0.000000
-28	-21	43.5832
-9.000000	-21	12.0486
10	-21	0.000000
29	-21	7.646980
-18.5	-20.5	12.0917
0.500000	-20.5	29.8755
19.5	-20.5	8.930337
-28	-20	42.6938
-9.000000	-20	24.4321
10	-20	13.0395
29	-20	0.000000
-18.5	-19.5	6.043193
0.500000	-19.5	33.3052
19.5	-19.5	8.689147
-28	-19	40.4256
-9.000000	-19	30.8274
10	-19	0.000000
29	-19	8.264574
-18.5	-18.5	14.3303
0.500000	-18.5	35.2225
19.5	-18.5	16.3125
-28	-18	40.0661
-9.000000	-18	36.3789
10	-18	2.849166
29	-18	23.0056
-18.5	-17.5	2.471782
0.500000	-17.5	20.6249
19.5	-17.5	11.8749
-28	-17	2.607123
-9.000000	-17	39.6605
10	-17	5.904133
29	-17	24.2973
-18.5	-16.5	8.392939
0.500000	-16.5	0.000000
19.5	-16.5	19.227
-28	-16	0.928340
-9.000000	-16	27.0761
10	-16	13.1688
29	-16	3.978182
-18.5	-15.5	7.177921
0.500000	-15.5	2.744748
19.5	-15.5	28.4449
-28	-15	7.762367
-9.000000	-15	9.226400
10	-15	14.6988
29	-15	9.781972
-18.5	-14.5	3.768038
0.500000	-14.5	10.4127
19.5	-14.5	32.668
-28	-14	38.421
-9.000000	-14	13.8257
10	-14	15.0565
29	-14	12.2321
-18.5	-13.5	14.4145
0.500000	-13.5	3.499014
19.5	-13.5	35.5035
-28	-13	41.6179
-9.000000	-13	12.0823
10	-13	32.3867
29	-13	42.4884
-18.5	-12.5	31.5404
0.500000	-12.5	0.583622
19.5	-12.5	34.2376
-28	-12	39.9782
-9.000000	-12	7.464404
10	-12	35.3986
29	-12	7.919945
-18.5	-11.5	6.183720
0.500000	-11.5	4.815501
19.5	-11.5	26.3384
-28	-11	36.0326
-9.000000	-11	6.996981
10	-11	19.4766
29	-11	30.2626
-18.5	-10.5	5.545956
0.500000	-10.5	10.0821
19.5	-10.5	2.288568
-28	-10	31.2711
-9.000000	-10	0.000000
10	-10	24.7408
29	-10	35.9182
-18.5	-9.500000	3.821245
0.500000	-9.500000	8.084909
19.5	-9.500000	1.461272
-28	-9.000000	32.733
-9.000000	-9.000000	11.6175
10	-9.000000	11.9688
29	-9.000000	32.1596
-18.5	-8.500000	5.176316
0.500000	-8.500000	0.000000
19.5	-8.500000	9.120050
-28	-8.000000	35.2524
-9.000000	-8.000000	0.000000
10	-8.000000	11.5782
29	-8.000000	8.648123
-18.5	-7.500000	64.9308
0.500000	-7.500000	0.000000
19.5	-7.500000	27.4306
-28	-7.000000	33.6396
-9.000000	-7.000000	20.614
10	-7.000000	18.0482
29	-7.000000	2.010350
-18.5	-6.500000	0.000000
0.500000	-6.500000	13.0505
19.5	-6.500000	13.4077
-28	-6.000000	25.2425
-9.000000	-6.000000	16.5616
10	-6.000000	15.5383
29	-6.000000	2.158953
-18.5	-5.500000	46.573
0.500000	-5.500000	22.7885
19.5	-5.500000	0.723583
-28	-5.000000	14.5301
-9.000000	-5.000000	33.7944
10	-5.000000	5.201630
29	-5.000000	23.9707
-18.5	-4.500000	0.000000
0.500000	-4.500000	22.7415
19.5	-4.500000	5.394200
-28	-4.000000	10.6702
-9.000000	-4.000000	35.8997
10	-4.000000	2.229580
29	-4.000000	11.6838
-18.5	-3.500000	10.5983
0.500000	-3.500000	20.2388
19.5	-3.500000	0.000000
-28	-3.000000	6.783683
-9.000000	-3.000000	34.9925
10	-3.000000	9.034922
29	-3.000000	10.9804
-18.5	-2.500000	20.7024
0.500000	-2.500000	20.221
19.5	-2.500000	1.829829
-28	-2.000000	7.143818
-9.000000	-2.000000	32.9364
10	-2.000000	5.417150
29	-2.000000	7.449240
-18.5	-1.500000	23.3624
0.500000	-1.500000	20.9353
19.5	-1.500000	6.437151
-28	-1.000000	9.970532
-9.000000	-1.000000	9.642015
10	-1.000000	0.000000
29	-1.000000	0.000000
-18.5	-0.500000	6.560432
0.500000	-0.500000	22.247
19.5	-0.500000	15.9807
-28	0.000000	12.2791
-9.000000	0.000000	6.175590
10	0.000000	5.963074
29	0.000000	5.610903
-18.5	0.500000	3.830376
0.500000	0.500000	4.945736
19.5	0.500000	0.000000
-28	1.000000	14.3258
-9.000000	1.000000	0.000000
10	1.000000	20.4003
29	1.000000	6.285220
-18.5	1.500000	15.6257
0.500000	1.500000	0.000000
19.5	1.500000	2.358313
-28	2.000000	0.000000
-9.000000	2.000000	1.710858
10	2.000000	16.6296
29	2.000000	0.000000
-18.5	2.500000	3.137472
0.500000	2.500000	0.000000
19.5	2.500000	818.201
-28	3.000000	0.000000
-9.000000	3.000000	0.000000
10	3.000000	2.165797
29	3.000000	5.259852
-18.5	3.500000	13.3978
0.500000	3.500000	2000
19.5	3.500000	0.000000
-28	4.000000	0.000000
-9.000000	4.000000	0.000000
10	4.000000	0.000000
29	4.000000	7.478473
-18.5	4.500000	11.9397
0.500000	4.500000	6.302215
19.5	4.500000	0.000000
-28	5.000000	117.725
-9.000000	5.000000	0.000000
10	5.000000	0.000000
29	5.000000	2000
-18.5	5.500000	17.2897
0.500000	5.500000	0.000000
19.5	5.500000	5.822839
-28	6.000000	0.000000
-9.000000	6.000000	0.000000
10	6.000000	0.000000
29	6.000000	0.000000
-18.5	6.500000	2.632539
0.500000	6.500000	0.000000
19.5	6.500000	0.000000
-28	7.000000	20.4156
-9.000000	7.000000	0.000000
10	7.000000	2000
29	7.000000	0.000000
-18.5	7.500000	2.733386
0.500000	7.500000	3.952591
19.5	7.500000	21.4078
-28	8.000000	41.458
-9.000000	8.000000	0.000000
10	8.000000	0.000000
29	8.000000	3.964038
-18.5	8.500000	4.754259
0.500000	8.500000	2.394885
19.5	8.500000	3.362286
-28	9.000000	39.5044
-9.000000	9.000000	0.000000
10	9.000000	0.000000
29	9.000000	6.321938
-18.5	9.500000	22.3765
0.500000	9.500000	3.929372
19.5	9.500000	0.000000
-28	10	40.2377
-9.000000	10	0.000000
10	10	0.000000
29	10	3.614110
-18.5	10.5	36.9224
0.500000	10.5	6.998696
19.5	10.5	7.693935
-28	11	40.9375
-9.000000	11	0.000000
10	11	0.000000
29	11	0.000000
-18.5	11.5	34.0464
0.500000	11.5	10.212
19.5	11.5	48.4344
-28	12	37.3989
-9.000000	12	0.000000
10	12	17.9952
29	12	0.000000
-18.5	12.5	35.5481
0.500000	12.5	8.446005
19.5	12.5	3.712232
-28	13	38.2303
-9.000000	13	0.393962
10	13	0.000000
29	13	0.000000
-18.5	13.5	36.6326
0.500000	13.5	9.154821
19.5	13.5	4.725063
-28	14	36.8104
-9.000000	14	0.000000
10	14	3.710870
29	14	8.629742
-18.5	14.5	35.1395
0.500000	14.5	31.2379
19.5	14.5	0.000000
-28	15	40.6277
-9.000000	15	22.8176
10	15	21.4281
29	15	6.201763
-18.5	15.5	37.6631
0.500000	15.5	27.6464
19.5	15.5	0.000000
-28	16	39.0345
-9.000000	16	5.157099
10	16	18.2194
29	16	0.000000
-18.5	16.5	34.2039
0.500000	16.5	30.4794
19.5	16.5	4.393911
-28	17	40.9601
-9.000000	17	10.726
10	17	28.7047
29	17	11.9197
-18.5	17.5	34.6866
0.500000	17.5	27.8155
19.5	17.5	0.000000
-28	18	39.7116
-9.000000	18	20.5079
10	18	30.2264
29	18	30.0532
-18.5	18.5	34.775
0.500000	18.5	27.8132
19.5	18.5	12.3196
-28	19	35.7772
-9.000000	19	25.604
10	19	24.5925
29	19	34.6825
-18.5	19.5	34.2701
0.500000	19.5	10.7777
19.5	19.5	2.844388
-28	20	10.8106
-9.000000	20	29.4578
10	20	26.0962
29	20	33.6078
38	20	32.3335