Folder: graphene-production/data/derived_data/raman/20170920_Gr-NH2_for_Radisurf/20170920 Gr-NH for Radisurf map 1 (part 4)

File: Dp FWHM.txt
#XList		#YList		#IList
-28	-22	0.639823
-9.000000	-22	26.8526
10	-22	18.3066
29	-22	151.767
-18.5	-21.5	15.5413
0.500000	-21.5	18.8109
19.5	-21.5	17.8808
-28	-21	0.936899
-9.000000	-21	21.8791
10	-21	18.5963
29	-21	79.5472
-18.5	-20.5	19.7694
0.500000	-20.5	18.8715
19.5	-20.5	13.2609
-28	-20	0.961882
-9.000000	-20	29.3037
10	-20	16.9131
29	-20	32.5076
-18.5	-19.5	21.2406
0.500000	-19.5	0.683536
19.5	-19.5	17.4532
-28	-19	0.639823
-9.000000	-19	21.0886
10	-19	23.6266
29	-19	29.7129
-18.5	-18.5	26.0447
0.500000	-18.5	0.890623
19.5	-18.5	18.8229
-28	-18	4.055911
-9.000000	-18	0.639823
10	-18	18.975
29	-18	24.3713
-18.5	-17.5	30.909
0.500000	-17.5	19.3585
19.5	-17.5	19.9692
-28	-17	31.5789
-9.000000	-17	0.639823
10	-17	21.9008
29	-17	16.0215
-18.5	-16.5	17.4097
0.500000	-16.5	30.8074
19.5	-16.5	13.4089
-28	-16	27.3262
-9.000000	-16	23.1884
10	-16	19.1394
29	-16	37.3415
-18.5	-15.5	20.4387
0.500000	-15.5	70.6977
19.5	-15.5	16.0083
-28	-15	18.8627
-9.000000	-15	15.9197
10	-15	18.7398
29	-15	24.1861
-18.5	-14.5	17.7697
0.500000	-14.5	31.3992
19.5	-14.5	2.064465
-28	-14	0.639823
-9.000000	-14	36.3255
10	-14	22.5942
29	-14	30.4106
-18.5	-13.5	73.8461
0.500000	-13.5	19.2039
19.5	-13.5	12.2331
-28	-13	21.9943
-9.000000	-13	29.6795
10	-13	13.8686
29	-13	26.7069
-18.5	-12.5	34.0021
0.500000	-12.5	19.785
19.5	-12.5	30.7992
-28	-12	14.437
-9.000000	-12	21.5211
10	-12	7.231197
29	-12	23.6301
-18.5	-11.5	24.7185
0.500000	-11.5	14.6764
19.5	-11.5	13.3497
-28	-11	0.639823
-9.000000	-11	20.8377
10	-11	39.5521
29	-11	3.954859
-18.5	-10.5	23.7996
0.500000	-10.5	19.1895
19.5	-10.5	25.7747
-28	-10	13.3599
-9.000000	-10	26.3246
10	-10	29.3241
29	-10	0.639823
-18.5	-9.500000	23.3385
0.500000	-9.500000	12.1721
19.5	-9.500000	47.7642
-28	-9.000000	22.9918
-9.000000	-9.000000	23.919
10	-9.000000	29.0584
29	-9.000000	18.6309
-18.5	-8.500000	28.5378
0.500000	-8.500000	16.6984
19.5	-8.500000	69.2261
-28	-8.000000	11.2757
-9.000000	-8.000000	20.6921
10	-8.000000	26.9368
29	-8.000000	85.2813
-18.5	-7.500000	24.4078
0.500000	-7.500000	12.9797
19.5	-7.500000	27.2137
-28	-7.000000	15.7667
-9.000000	-7.000000	8.009541
10	-7.000000	13.2467
29	-7.000000	18.0337
-18.5	-6.500000	20.4868
0.500000	-6.500000	16.3156
19.5	-6.500000	19.0927
-28	-6.000000	19.9819
-9.000000	-6.000000	18.7416
10	-6.000000	15.2529
29	-6.000000	31.4298
-18.5	-5.500000	17.3143
0.500000	-5.500000	19.7878
19.5	-5.500000	13.5703
-28	-5.000000	18.2976
-9.000000	-5.000000	15.2275
10	-5.000000	16.7777
29	-5.000000	13.8147
-18.5	-4.500000	14.1694
0.500000	-4.500000	21.0491
19.5	-4.500000	11.2742
-28	-4.000000	9.724683
-9.000000	-4.000000	0.639823
10	-4.000000	31.1622
29	-4.000000	61.7373
-18.5	-3.500000	12.1818
0.500000	-3.500000	21.3935
19.5	-3.500000	13.6448
-28	-3.000000	22.1853
-9.000000	-3.000000	0.639823
10	-3.000000	19.0878
29	-3.000000	17.8
-18.5	-2.500000	12.0051
0.500000	-2.500000	18.2536
19.5	-2.500000	15.8576
-28	-2.000000	23.9201
-9.000000	-2.000000	36.8314
10	-2.000000	23.4425
29	-2.000000	11.4299
-18.5	-1.500000	16.3334
0.500000	-1.500000	16.7948
19.5	-1.500000	8.176903
-28	-1.000000	24.9572
-9.000000	-1.000000	20.6218
10	-1.000000	24.8675
29	-1.000000	15.7999
-18.5	-0.500000	18.8988
0.500000	-0.500000	23.6865
19.5	-0.500000	13.1673
-28	0.000000	17.8827
-9.000000	0.000000	29.3468
10	0.000000	18.9928
29	0.000000	15.919
-18.5	0.500000	18.5955
0.500000	0.500000	16.0162
19.5	0.500000	15.7653
-28	1.000000	16.5106
-9.000000	1.000000	15.682
10	1.000000	15.8135
29	1.000000	23.7687
-18.5	1.500000	17.5998
0.500000	1.500000	18.3007
19.5	1.500000	12.448
-28	2.000000	18.3418
-9.000000	2.000000	13.0785
10	2.000000	15.0669
29	2.000000	13.3668
-18.5	2.500000	20.5855
0.500000	2.500000	22.1544
19.5	2.500000	10.8355
-28	3.000000	17.213
-9.000000	3.000000	14.4972
10	3.000000	20.6594
29	3.000000	9.067748
-18.5	3.500000	14.1238
0.500000	3.500000	21.5752
19.5	3.500000	12.382
-28	4.000000	21.4306
-9.000000	4.000000	25.1803
10	4.000000	13.6564
29	4.000000	9.428159
-18.5	4.500000	16.0864
0.500000	4.500000	17.5474
19.5	4.500000	18.4837
-28	5.000000	14.8628
-9.000000	5.000000	17.3181
10	5.000000	19.9378
29	5.000000	10.4267
-18.5	5.500000	17.294
0.500000	5.500000	17.9401
19.5	5.500000	12.2653
-28	6.000000	14.8118
-9.000000	6.000000	22.2461
10	6.000000	24.9397
29	6.000000	10.9189
-18.5	6.500000	18.0197
0.500000	6.500000	13.2078
19.5	6.500000	15.8852
-28	7.000000	19.419
-9.000000	7.000000	32.3975
10	7.000000	25.5238
29	7.000000	12.969
-18.5	7.500000	18.644
0.500000	7.500000	16.747
19.5	7.500000	13.2903
-28	8.000000	0.639823
-9.000000	8.000000	21.6595
10	8.000000	24.3455
29	8.000000	24.6329
-18.5	8.500000	15.4792
0.500000	8.500000	17.9416
19.5	8.500000	16.6858
-28	9.000000	0.639823
-9.000000	9.000000	19.0099
10	9.000000	17.4502
29	9.000000	13.7907
-18.5	9.500000	18.068
0.500000	9.500000	15.6352
19.5	9.500000	12.6753
-28	10	11.2263
-9.000000	10	27.469
10	10	16.6691
29	10	15.0259
-18.5	10.5	18.3453
0.500000	10.5	19.0342
19.5	10.5	14.3772
-28	11	1.998116
-9.000000	11	13.7707
10	11	14.1134
29	11	18.0544
-18.5	11.5	23.5009
0.500000	11.5	17.0586
19.5	11.5	10.2365
-28	12	26.0142
-9.000000	12	23.3089
10	12	22.4899
29	12	16.2661
-18.5	12.5	1.518967
0.500000	12.5	11.1956
19.5	12.5	16.1261
-28	13	1.383235
-9.000000	13	14.5797
10	13	27.8778
29	13	17.2765
-18.5	13.5	3.305367
0.500000	13.5	13.0492
19.5	13.5	15.21
-28	14	0.639823
-9.000000	14	13.7163
10	14	21.3339
29	14	6.476096
-18.5	14.5	0.682808
0.500000	14.5	24.3402
19.5	14.5	20.0115
-28	15	0.639823
-9.000000	15	22.0523
10	15	18.5749
29	15	17.0349
-18.5	15.5	0.639823
0.500000	15.5	23.4871
19.5	15.5	14.4477
-28	16	0.639823
-9.000000	16	16.058
10	16	22.3044
29	16	140.741
-18.5	16.5	0.639823
0.500000	16.5	0.639823
19.5	16.5	14.4403
-28	17	22.7432
-9.000000	17	16.8925
10	17	18.258
29	17	21.9374
-18.5	17.5	0.639823
0.500000	17.5	30.4397
19.5	17.5	14.5323
-28	18	49.272
-9.000000	18	20.1309
10	18	17.0887
29	18	27.367
-18.5	18.5	3.043823
0.500000	18.5	18.7539
19.5	18.5	17.0335
-28	19	16.1384
-9.000000	19	29.5055
10	19	20.2454
29	19	0.639823
-18.5	19.5	0.639823
0.500000	19.5	21.2036
19.5	19.5	19.2745
-28	20	24.941
-9.000000	20	24.4316
10	20	18.2234
29	20	0.639823
38	20	0.639823

File: Dp int.txt
#XList		#YList		#IList
-28	-22	0.000000
-9.000000	-22	124.569
10	-22	69.3773
29	-22	6.870997
-18.5	-21.5	45.837
0.500000	-21.5	41.586
19.5	-21.5	82.9803
-28	-21	18.2317
-9.000000	-21	86.2557
10	-21	42.5448
29	-21	42.0344
-18.5	-20.5	58.0168
0.500000	-20.5	9.126141
19.5	-20.5	73.6547
-28	-20	16.3451
-9.000000	-20	88.9443
10	-20	50.2226
29	-20	67.2453
-18.5	-19.5	51.4639
0.500000	-19.5	65.5445
19.5	-19.5	75.7205
-28	-19	0.000000
-9.000000	-19	25.6175
10	-19	47.395
29	-19	111.765
-18.5	-18.5	71.9398
0.500000	-18.5	26.9548
19.5	-18.5	67.6766
-28	-18	0.000000
-9.000000	-18	0.000000
10	-18	45.0175
29	-18	87.4377
-18.5	-17.5	48.421
0.500000	-17.5	32.6017
19.5	-17.5	75.5606
-28	-17	19.1752
-9.000000	-17	0.000000
10	-17	65.8698
29	-17	50.6606
-18.5	-16.5	67.5884
0.500000	-16.5	33.1195
19.5	-16.5	56.4951
-28	-16	35.4334
-9.000000	-16	45.925
10	-16	49.583
29	-16	36.9987
-18.5	-15.5	61.287
0.500000	-15.5	37.1866
19.5	-15.5	64.5899
-28	-15	25.4028
-9.000000	-15	83.3226
10	-15	47.1578
29	-15	25.7173
-18.5	-14.5	49.2292
0.500000	-14.5	84.3182
19.5	-14.5	17.8573
-28	-14	3.645399
-9.000000	-14	163.117
10	-14	47.7597
29	-14	59.788
-18.5	-13.5	0.000000
0.500000	-13.5	47.7257
19.5	-13.5	0.000000
-28	-13	3.065265
-9.000000	-13	93.6859
10	-13	25.9223
29	-13	43.0616
-18.5	-12.5	34.7764
0.500000	-12.5	41.5572
19.5	-12.5	9.453069
-28	-12	4.787907
-9.000000	-12	68.0063
10	-12	6.708469
29	-12	71.4772
-18.5	-11.5	83.1589
0.500000	-11.5	37.2249
19.5	-11.5	22.9651
-28	-11	13.0904
-9.000000	-11	81.2517
10	-11	65.1269
29	-11	11.3738
-18.5	-10.5	69.297
0.500000	-10.5	49.6618
19.5	-10.5	102.599
-28	-10	78.3091
-9.000000	-10	70.9878
10	-10	61.9689
29	-10	0.000000
-18.5	-9.500000	76.1034
0.500000	-9.500000	47.2262
19.5	-9.500000	49.5137
-28	-9.000000	67.1619
-9.000000	-9.000000	62.997
10	-9.000000	91.2667
29	-9.000000	13.3359
-18.5	-8.500000	96.4475
0.500000	-8.500000	58.5052
19.5	-8.500000	75.398
-28	-8.000000	9.102073
-9.000000	-8.000000	58.4681
10	-8.000000	107.951
29	-8.000000	34.0955
-18.5	-7.500000	81.5853
0.500000	-7.500000	80.732
19.5	-7.500000	41.4291
-28	-7.000000	15.0643
-9.000000	-7.000000	48.4742
10	-7.000000	52.2475
29	-7.000000	11.7106
-18.5	-6.500000	60.7416
0.500000	-6.500000	76.4431
19.5	-6.500000	66.7023
-28	-6.000000	27.4153
-9.000000	-6.000000	35.7454
10	-6.000000	57.5957
29	-6.000000	13.7826
-18.5	-5.500000	34.2072
0.500000	-5.500000	62.0509
19.5	-5.500000	46.7223
-28	-5.000000	33.0886
-9.000000	-5.000000	0.550761
10	-5.000000	58.8726
29	-5.000000	30.8974
-18.5	-4.500000	58.5364
0.500000	-4.500000	81.2859
19.5	-4.500000	24.8314
-28	-4.000000	22.7433
-9.000000	-4.000000	40.6671
10	-4.000000	42.3627
29	-4.000000	108.51
-18.5	-3.500000	45.7272
0.500000	-3.500000	86.6546
19.5	-3.500000	27.223
-28	-3.000000	15.3223
-9.000000	-3.000000	0.000000
10	-3.000000	114.497
29	-3.000000	50.6776
-18.5	-2.500000	66.2479
0.500000	-2.500000	79.6226
19.5	-2.500000	27.6823
-28	-2.000000	21.6412
-9.000000	-2.000000	32.5048
10	-2.000000	67.4026
29	-2.000000	59.1413
-18.5	-1.500000	63.0508
0.500000	-1.500000	70.9167
19.5	-1.500000	30.2305
-28	-1.000000	33.2472
-9.000000	-1.000000	55.2088
10	-1.000000	67.3133
29	-1.000000	54.2854
-18.5	-0.500000	75.6913
0.500000	-0.500000	27.0234
19.5	-0.500000	24.1196
-28	0.000000	19.9963
-9.000000	0.000000	70.9575
10	0.000000	58.3345
29	0.000000	49.7987
-18.5	0.500000	70.969
0.500000	0.500000	42.2562
19.5	0.500000	19.1384
-28	1.000000	39.7672
-9.000000	1.000000	40.4969
10	1.000000	69.1523
29	1.000000	64.3746
-18.5	1.500000	87.3308
0.500000	1.500000	47.6559
19.5	1.500000	21.1005
-28	2.000000	95.446
-9.000000	2.000000	49.4375
10	2.000000	76.6211
29	2.000000	58.7094
-18.5	2.500000	71.7651
0.500000	2.500000	65.4691
19.5	2.500000	34.2559
-28	3.000000	96.6357
-9.000000	3.000000	49.5294
10	3.000000	62.9944
29	3.000000	38.2166
-18.5	3.500000	58.1802
0.500000	3.500000	49.4207
19.5	3.500000	32.3524
-28	4.000000	68.4003
-9.000000	4.000000	41.3657
10	4.000000	59.3772
29	4.000000	54.7371
-18.5	4.500000	60.8766
0.500000	4.500000	97.8061
19.5	4.500000	32.6543
-28	5.000000	75.3324
-9.000000	5.000000	57.9223
10	5.000000	50.7433
29	5.000000	48.8927
-18.5	5.500000	100.505
0.500000	5.500000	54.4515
19.5	5.500000	31.9136
-28	6.000000	52.0201
-9.000000	6.000000	57.0763
10	6.000000	44.0753
29	6.000000	37.5547
-18.5	6.500000	81.6518
0.500000	6.500000	47.7536
19.5	6.500000	37.5876
-28	7.000000	51.568
-9.000000	7.000000	101.754
10	7.000000	41.0488
29	7.000000	33.0175
-18.5	7.500000	73.7484
0.500000	7.500000	44.4632
19.5	7.500000	60.0341
-28	8.000000	0.000000
-9.000000	8.000000	66.2274
10	8.000000	59.9817
29	8.000000	40.1611
-18.5	8.500000	68.4479
0.500000	8.500000	43.9892
19.5	8.500000	21.3949
-28	9.000000	0.000000
-9.000000	9.000000	73.2038
10	9.000000	75.4063
29	9.000000	36.8548
-18.5	9.500000	49.8326
0.500000	9.500000	61.0265
19.5	9.500000	42.2003
-28	10	0.000000
-9.000000	10	79.2614
10	10	46.0701
29	10	39.4248
-18.5	10.5	11.4156
0.500000	10.5	70.7977
19.5	10.5	30.1752
-28	11	0.000000
-9.000000	11	70.2921
10	11	40.8954
29	11	53.4005
-18.5	11.5	15.5691
0.500000	11.5	62.0589
19.5	11.5	54.4736
-28	12	8.343753
-9.000000	12	70.5968
10	12	42.4155
29	12	27.2697
-18.5	12.5	5.872862
0.500000	12.5	66.804
19.5	12.5	67.8123
-28	13	0.000000
-9.000000	13	88.7153
10	13	55.4798
29	13	44.3591
-18.5	13.5	0.000000
0.500000	13.5	70.8316
19.5	13.5	70.2843
-28	14	0.000000
-9.000000	14	73.1429
10	14	111.146
29	14	47.8519
-18.5	14.5	34.6889
0.500000	14.5	41.2441
19.5	14.5	80.4839
-28	15	6.234087
-9.000000	15	59.7269
10	15	93.4582
29	15	48.1792
-18.5	15.5	0.000000
0.500000	15.5	42.9049
19.5	15.5	44.3257
-28	16	9.118110
-9.000000	16	44.9547
10	16	86.9328
29	16	0.000000
-18.5	16.5	0.000000
0.500000	16.5	0.000000
19.5	16.5	62.9323
-28	17	2.442904
-9.000000	17	67.6834
10	17	34.285
29	17	38.8923
-18.5	17.5	12.3499
0.500000	17.5	65.5309
19.5	17.5	46.9666
-28	18	0.000000
-9.000000	18	90.7754
10	18	21.2858
29	18	26.6672
-18.5	18.5	4.857846
0.500000	18.5	28.5493
19.5	18.5	52.7836
-28	19	14.7861
-9.000000	19	53.9507
10	19	27.5474
29	19	0.000000
-18.5	19.5	0.000000
0.500000	19.5	77.997
19.5	19.5	81.3435
-28	20	139.137
-9.000000	20	11.7661
10	20	36.6711
29	20	34.8303
38	20	0.297955

File: Dp pos.txt
#XList		#YList		#IList
-28	-22	1615.25
-9.000000	-22	1604.8
10	-22	1609.34
29	-22	1600
-18.5	-21.5	1614.11
0.500000	-21.5	1609.37
19.5	-21.5	1610.9
-28	-21	1619.35
-9.000000	-21	1607.78
10	-21	1610.27
29	-21	1600
-18.5	-20.5	1608.76
0.500000	-20.5	1620.55
19.5	-20.5	1614.9
-28	-20	1611.62
-9.000000	-20	1606.33
10	-20	1609.95
29	-20	1613.29
-18.5	-19.5	1604.98
0.500000	-19.5	1622.15
19.5	-19.5	1613.41
-28	-19	1615.38
-9.000000	-19	1618.08
10	-19	1606.57
29	-19	1614.05
-18.5	-18.5	1612.39
0.500000	-18.5	1600.88
19.5	-18.5	1611.19
-28	-18	1640
-9.000000	-18	1615.58
10	-18	1605.35
29	-18	1613.69
-18.5	-17.5	1614.22
0.500000	-17.5	1620.14
19.5	-17.5	1609.13
-28	-17	1616.53
-9.000000	-17	1640
10	-17	1606.39
29	-17	1615.98
-18.5	-16.5	1611.51
0.500000	-16.5	1616.01
19.5	-16.5	1615.32
-28	-16	1612.45
-9.000000	-16	1614.22
10	-16	1608.59
29	-16	1613.52
-18.5	-15.5	1606.82
0.500000	-15.5	1600
19.5	-15.5	1616.94
-28	-15	1615.84
-9.000000	-15	1611.31
10	-15	1609.78
29	-15	1614.57
-18.5	-14.5	1607.72
0.500000	-14.5	1614.69
19.5	-14.5	1608.43
-28	-14	1615.3
-9.000000	-14	1604.59
10	-14	1611.22
29	-14	1614.65
-18.5	-13.5	1624.14
0.500000	-13.5	1615.26
19.5	-13.5	1638.64
-28	-13	1621.78
-9.000000	-13	1602.53
10	-13	1619.44
29	-13	1617.75
-18.5	-12.5	1606.66
0.500000	-12.5	1616.2
19.5	-12.5	1612.08
-28	-12	1620.55
-9.000000	-12	1604.63
10	-12	1618.91
29	-12	1614.66
-18.5	-11.5	1602.35
0.500000	-11.5	1617.14
19.5	-11.5	1613.95
-28	-11	1623.16
-9.000000	-11	1604.5
10	-11	1611.27
29	-11	1622.89
-18.5	-10.5	1605.55
0.500000	-10.5	1609.11
19.5	-10.5	1614.47
-28	-10	1617.04
-9.000000	-10	1603.38
10	-10	1614.51
29	-10	1616.13
-18.5	-9.500000	1605.23
0.500000	-9.500000	1614.68
19.5	-9.500000	1606.52
-28	-9.000000	1612.97
-9.000000	-9.000000	1601.48
10	-9.000000	1613.76
29	-9.000000	1617.47
-18.5	-8.500000	1602.75
0.500000	-8.500000	1612.69
19.5	-8.500000	1600
-28	-8.000000	1617.93
-9.000000	-8.000000	1608.86
10	-8.000000	1613.01
29	-8.000000	1600
-18.5	-7.500000	1605.84
0.500000	-7.500000	1612.01
19.5	-7.500000	1610.67
-28	-7.000000	1606.38
-9.000000	-7.000000	1609.94
10	-7.000000	1614.25
29	-7.000000	1616.7
-18.5	-6.500000	1606.42
0.500000	-6.500000	1612.94
19.5	-6.500000	1609.45
-28	-6.000000	1609.18
-9.000000	-6.000000	1609.1
10	-6.000000	1609.34
29	-6.000000	1615.5
-18.5	-5.500000	1612.94
0.500000	-5.500000	1616.78
19.5	-5.500000	1610.19
-28	-5.000000	1615.18
-9.000000	-5.000000	1619.99
10	-5.000000	1615.61
29	-5.000000	1617.99
-18.5	-4.500000	1613.16
0.500000	-4.500000	1615.38
19.5	-4.500000	1608.52
-28	-4.000000	1619.06
-9.000000	-4.000000	1633.18
10	-4.000000	1615.34
29	-4.000000	1600
-18.5	-3.500000	1614.09
0.500000	-3.500000	1611.67
19.5	-3.500000	1613.75
-28	-3.000000	1616.05
-9.000000	-3.000000	1628.78
10	-3.000000	1615.21
29	-3.000000	1613.52
-18.5	-2.500000	1616.23
0.500000	-2.500000	1612.19
19.5	-2.500000	1611.2
-28	-2.000000	1617.91
-9.000000	-2.000000	1607.01
10	-2.000000	1603.61
29	-2.000000	1612.76
-18.5	-1.500000	1615.13
0.500000	-1.500000	1616.36
19.5	-1.500000	1614.23
-28	-1.000000	1611.55
-9.000000	-1.000000	1604.71
10	-1.000000	1601.87
29	-1.000000	1613.66
-18.5	-0.500000	1612.13
0.500000	-0.500000	1613.68
19.5	-0.500000	1616.36
-28	0.000000	1615.14
-9.000000	0.000000	1600.28
10	0.000000	1610.56
29	0.000000	1612.08
-18.5	0.500000	1613.03
0.500000	0.500000	1609.4
19.5	0.500000	1616.33
-28	1.000000	1613.77
-9.000000	1.000000	1610.44
10	1.000000	1612.61
29	1.000000	1605.01
-18.5	1.500000	1614.47
0.500000	1.500000	1612.07
19.5	1.500000	1615.46
-28	2.000000	1616.31
-9.000000	2.000000	1615.28
10	2.000000	1613.34
29	2.000000	1615.36
-18.5	2.500000	1608.87
0.500000	2.500000	1616.49
19.5	2.500000	1613.32
-28	3.000000	1616.63
-9.000000	3.000000	1616.84
10	3.000000	1609.72
29	3.000000	1618.17
-18.5	3.500000	1613.31
0.500000	3.500000	1613.38
19.5	3.500000	1613.55
-28	4.000000	1616.73
-9.000000	4.000000	1609.29
10	4.000000	1618
29	4.000000	1614.64
-18.5	4.500000	1614.22
0.500000	4.500000	1614.46
19.5	4.500000	1611.57
-28	5.000000	1617.05
-9.000000	5.000000	1614.63
10	5.000000	1616.37
29	5.000000	1615.06
-18.5	5.500000	1615.44
0.500000	5.500000	1612.7
19.5	5.500000	1615.7
-28	6.000000	1615.55
-9.000000	6.000000	1607.2
10	6.000000	1616.93
29	6.000000	1615.76
-18.5	6.500000	1616.22
0.500000	6.500000	1618.34
19.5	6.500000	1614.05
-28	7.000000	1614.63
-9.000000	7.000000	1602.3
10	7.000000	1616.57
29	7.000000	1613.55
-18.5	7.500000	1616.19
0.500000	7.500000	1613.7
19.5	7.500000	1613.35
-28	8.000000	1622.66
-9.000000	8.000000	1608.66
10	8.000000	1616.48
29	8.000000	1603.86
-18.5	8.500000	1618.19
0.500000	8.500000	1612.89
19.5	8.500000	1606.98
-28	9.000000	1620.65
-9.000000	9.000000	1609.21
10	9.000000	1616.1
29	9.000000	1616.17
-18.5	9.500000	1617.14
0.500000	9.500000	1615.35
19.5	9.500000	1609.15
-28	10	1600
-9.000000	10	1607.77
10	10	1615.53
29	10	1613.37
-18.5	10.5	1617.71
0.500000	10.5	1615.97
19.5	10.5	1610.62
-28	11	1618.95
-9.000000	11	1614.34
10	11	1618.83
29	11	1612.02
-18.5	11.5	1612.68
0.500000	11.5	1615.55
19.5	11.5	1617.75
-28	12	1626.16
-9.000000	12	1610.59
10	12	1616.83
29	12	1608.32
-18.5	12.5	1630.22
0.500000	12.5	1615.79
19.5	12.5	1617.26
-28	13	1601.96
-9.000000	13	1613.05
10	13	1613.35
29	13	1610.79
-18.5	13.5	1620.02
0.500000	13.5	1611.87
19.5	13.5	1617.09
-28	14	1622
-9.000000	14	1614.33
10	14	1613.8
29	14	1617.02
-18.5	14.5	1617.16
0.500000	14.5	1616.17
19.5	14.5	1614.84
-28	15	1618.53
-9.000000	15	1616.08
10	15	1612.88
29	15	1612.16
-18.5	15.5	1611.47
0.500000	15.5	1617.44
19.5	15.5	1614.91
-28	16	1607.01
-9.000000	16	1613.54
10	16	1611.62
29	16	1600
-18.5	16.5	1628.07
0.500000	16.5	1600
19.5	16.5	1617.79
-28	17	1616.49
-9.000000	17	1613.38
10	17	1616.6
29	17	1604.46
-18.5	17.5	1621.32
0.500000	17.5	1607.96
19.5	17.5	1619.65
-28	18	1634.73
-9.000000	18	1615.3
10	18	1616.94
29	18	1617.27
-18.5	18.5	1616.5
0.500000	18.5	1619.38
19.5	18.5	1617.54
-28	19	1613.25
-9.000000	19	1614.12
10	19	1611.16
29	19	1619.25
-18.5	19.5	1622.19
0.500000	19.5	1616.46
19.5	19.5	1615.59
-28	20	1614.94
-9.000000	20	1620.71
10	20	1617.6
29	20	1616.27
38	20	1615.51

File: G FWHM.txt
#XList		#YList		#IList
-28	-22	50.0009
-9.000000	-22	66.1362
10	-22	64.5749
29	-22	24.0381
-18.5	-21.5	57.6409
0.500000	-21.5	66.5474
19.5	-21.5	61.1118
-28	-21	71.889
-9.000000	-21	67.4979
10	-21	59.3216
29	-21	16.0391
-18.5	-20.5	64.2854
0.500000	-20.5	47.2538
19.5	-20.5	59.5633
-28	-20	336.711
-9.000000	-20	70.3056
10	-20	58.7197
29	-20	24.8647
-18.5	-19.5	62.9232
0.500000	-19.5	56.4552
19.5	-19.5	55.8003
-28	-19	106.326
-9.000000	-19	57.559
10	-19	61.3275
29	-19	30.8495
-18.5	-18.5	37.7605
0.500000	-18.5	70.21
19.5	-18.5	58.7932
-28	-18	46.5545
-9.000000	-18	87.5246
10	-18	63.2465
29	-18	54.258
-18.5	-17.5	22.219
0.500000	-17.5	28.0534
19.5	-17.5	66.0312
-28	-17	26.514
-9.000000	-17	54.8812
10	-17	67.0493
29	-17	61.6402
-18.5	-16.5	64.8177
0.500000	-16.5	22.2964
19.5	-16.5	61.1494
-28	-16	28.3409
-9.000000	-16	63.3483
10	-16	67.2213
29	-16	22.2784
-18.5	-15.5	59.0342
0.500000	-15.5	15.5677
19.5	-15.5	46.2102
-28	-15	24.2229
-9.000000	-15	53.4817
10	-15	63.0107
29	-15	22.533
-18.5	-14.5	65.1904
0.500000	-14.5	23.7273
19.5	-14.5	65.9775
-28	-14	37.9087
-9.000000	-14	72.6035
10	-14	56.8573
29	-14	23.9856
-18.5	-13.5	74.0093
0.500000	-13.5	45.2467
19.5	-13.5	41.0887
-28	-13	48.0688
-9.000000	-13	67.2394
10	-13	58.7588
29	-13	29.7734
-18.5	-12.5	75.9092
0.500000	-12.5	46.3444
19.5	-12.5	73.8737
-28	-12	65.325
-9.000000	-12	66.8715
10	-12	49.3517
29	-12	37.2904
-18.5	-11.5	66.861
0.500000	-11.5	48.5542
19.5	-11.5	61.8741
-28	-11	60.4191
-9.000000	-11	63.4494
10	-11	21.7765
29	-11	55.2108
-18.5	-10.5	67.0833
0.500000	-10.5	48.6974
19.5	-10.5	26.3868
-28	-10	56.1827
-9.000000	-10	66.2816
10	-10	24.6188
29	-10	80.5342
-18.5	-9.500000	70.3269
0.500000	-9.500000	57.0005
19.5	-9.500000	16.0096
-28	-9.000000	54.6442
-9.000000	-9.000000	69.8275
10	-9.000000	27.2832
29	-9.000000	38.4223
-18.5	-8.500000	71.4504
0.500000	-8.500000	55.4653
19.5	-8.500000	15.6797
-28	-8.000000	69.5675
-9.000000	-8.000000	66.1367
10	-8.000000	27.7827
29	-8.000000	19.3497
-18.5	-7.500000	65.3261
0.500000	-7.500000	52.1743
19.5	-7.500000	72.1787
-28	-7.000000	80.0362
-9.000000	-7.000000	64.7072
10	-7.000000	66.447
29	-7.000000	20.8439
-18.5	-6.500000	65.7523
0.500000	-6.500000	65.1058
19.5	-6.500000	67.3103
-28	-6.000000	70.8019
-9.000000	-6.000000	68.7976
10	-6.000000	63.7733
29	-6.000000	18.8155
-18.5	-5.500000	61.7383
0.500000	-5.500000	49.8146
19.5	-5.500000	60.7854
-28	-5.000000	59.2166
-9.000000	-5.000000	44.5467
10	-5.000000	42.8372
29	-5.000000	56.7364
-18.5	-4.500000	59.5847
0.500000	-4.500000	57.2754
19.5	-4.500000	69.5878
-28	-4.000000	59.1926
-9.000000	-4.000000	479.724
10	-4.000000	22.0417
29	-4.000000	19.8218
-18.5	-3.500000	70.4236
0.500000	-3.500000	62.3287
19.5	-3.500000	69.6507
-28	-3.000000	51.0775
-9.000000	-3.000000	59.6939
10	-3.000000	46.6658
29	-3.000000	59.5423
-18.5	-2.500000	62.1556
0.500000	-2.500000	58.2245
19.5	-2.500000	63.8163
-28	-2.000000	44.6606
-9.000000	-2.000000	83.4286
10	-2.000000	63.0072
29	-2.000000	51.6374
-18.5	-1.500000	64.12
0.500000	-1.500000	55.5313
19.5	-1.500000	70.3663
-28	-1.000000	39.7612
-9.000000	-1.000000	67.482
10	-1.000000	63.1022
29	-1.000000	53.0673
-18.5	-0.500000	61.6412
0.500000	-0.500000	73.7006
19.5	-0.500000	64.0668
-28	0.000000	56.561
-9.000000	0.000000	66.3845
10	0.000000	61.3665
29	0.000000	67.2539
-18.5	0.500000	52.547
0.500000	0.500000	64.5423
19.5	0.500000	64.1265
-28	1.000000	57.7053
-9.000000	1.000000	61.1936
10	1.000000	51.7754
29	1.000000	64.6269
-18.5	1.500000	60.5152
0.500000	1.500000	61.6245
19.5	1.500000	64.3641
-28	2.000000	44.1259
-9.000000	2.000000	50.4817
10	2.000000	52.3159
29	2.000000	57.542
-18.5	2.500000	61.0388
0.500000	2.500000	49.2509
19.5	2.500000	61.4595
-28	3.000000	49.329
-9.000000	3.000000	45.3191
10	3.000000	61.5299
29	3.000000	58.0598
-18.5	3.500000	66.6172
0.500000	3.500000	49.2466
19.5	3.500000	67.9494
-28	4.000000	55.3194
-9.000000	4.000000	47.2243
10	4.000000	49.9302
29	4.000000	54.0906
-18.5	4.500000	52.9219
0.500000	4.500000	56.7276
19.5	4.500000	70.3945
-28	5.000000	55.9111
-9.000000	5.000000	56.6119
10	5.000000	45.7904
29	5.000000	59.2633
-18.5	5.500000	51.1132
0.500000	5.500000	55.5886
19.5	5.500000	63.1261
-28	6.000000	54.2885
-9.000000	6.000000	64.9198
10	6.000000	36.3884
29	6.000000	69.4936
-18.5	6.500000	37.5801
0.500000	6.500000	55.4323
19.5	6.500000	60.1353
-28	7.000000	66.2026
-9.000000	7.000000	68.6955
10	7.000000	27.3614
29	7.000000	62.7735
-18.5	7.500000	38.9357
0.500000	7.500000	60.4061
19.5	7.500000	54.7364
-28	8.000000	78.4933
-9.000000	8.000000	67.0075
10	8.000000	34.9579
29	8.000000	70.4777
-18.5	8.500000	51.9353
0.500000	8.500000	67.7827
19.5	8.500000	70.9203
-28	9.000000	155.988
-9.000000	9.000000	69.2368
10	9.000000	41.5203
29	9.000000	67.723
-18.5	9.500000	56.9971
0.500000	9.500000	46.0741
19.5	9.500000	58.68
-28	10	285.988
-9.000000	10	67.2605
10	10	48.4759
29	10	63.6165
-18.5	10.5	63.0945
0.500000	10.5	36.7858
19.5	10.5	64.0632
-28	11	79.6727
-9.000000	11	65.2994
10	11	43.5143
29	11	61.0291
-18.5	11.5	65.9621
0.500000	11.5	42.7506
19.5	11.5	52.6608
-28	12	31.5073
-9.000000	12	64.7867
10	12	34.5401
29	12	66.656
-18.5	12.5	24.7052
0.500000	12.5	52.0962
19.5	12.5	43.3896
-28	13	135.319
-9.000000	13	61.4046
10	13	25.1681
29	13	67.0125
-18.5	13.5	1852.8
0.500000	13.5	61.9243
19.5	13.5	47.626
-28	14	72.0204
-9.000000	14	59.2505
10	14	37.0966
29	14	63.1923
-18.5	14.5	62.0331
0.500000	14.5	59.2505
19.5	14.5	49.8739
-28	15	487.863
-9.000000	15	56.0943
10	15	62.1519
29	15	62.7247
-18.5	15.5	2.029483
0.500000	15.5	41.1646
19.5	15.5	60.5434
-28	16	234.702
-9.000000	16	69.5702
10	16	55.6838
29	16	69.3372
-18.5	16.5	0.639823
0.500000	16.5	74.6269
19.5	16.5	44.4828
-28	17	406.27
-9.000000	17	54.2303
10	17	59.1259
29	17	68.9697
-18.5	17.5	0.721075
0.500000	17.5	67.954
19.5	17.5	41.1926
-28	18	98.1079
-9.000000	18	45.5684
10	18	64.7849
29	18	32.3954
-18.5	18.5	481.135
0.500000	18.5	55.2578
19.5	18.5	40.2549
-28	19	66.8977
-9.000000	19	28.974
10	19	60.656
29	19	87.2775
-18.5	19.5	4.354092
0.500000	19.5	32.2998
19.5	19.5	33.2338
-28	20	33.6937
-9.000000	20	45.29
10	20	59.2565
29	20	42.5652
38	20	59.4339