Folder: graphene-production/data/derived_data/raman/20170920_Gr-NH2_for_Radisurf/20170920 Gr-NH for Radisurf map 1

File: 2D FWHM.txt
#XList		#YList		#IList
-28	-22	6.395258
-9.000000	-22	158.385
10	-22	124.243
29	-22	77.9096
-18.5	-21.5	106.099
0.500000	-21.5	126.071
19.5	-21.5	136.997
-28	-21	2595.12
-9.000000	-21	178.863
10	-21	127.965
29	-21	79.0962
-18.5	-20.5	166.463
0.500000	-20.5	106.562
19.5	-20.5	115.591
-28	-20	91.6936
-9.000000	-20	115.702
10	-20	115.818
29	-20	94.3856
-18.5	-19.5	133.942
0.500000	-19.5	1306.98
19.5	-19.5	133.93
-28	-19	1423.93
-9.000000	-19	117.653
10	-19	118.679
29	-19	122.487
-18.5	-18.5	93.5826
0.500000	-18.5	54.097
19.5	-18.5	134.343
-28	-18	120.691
-9.000000	-18	9.216150
10	-18	139.642
29	-18	168.441
-18.5	-17.5	78.7659
0.500000	-17.5	75.8929
19.5	-17.5	104.123
-28	-17	78.7273
-9.000000	-17	119.214
10	-17	179.904
29	-17	156.897
-18.5	-16.5	146.181
0.500000	-16.5	78.5158
19.5	-16.5	97.8084
-28	-16	85.6059
-9.000000	-16	174.534
10	-16	124.95
29	-16	77.2399
-18.5	-15.5	161.862
0.500000	-15.5	74.04
19.5	-15.5	84.8279
-28	-15	72.7895
-9.000000	-15	124.126
10	-15	118.349
29	-15	83.2178
-18.5	-14.5	166.407
0.500000	-14.5	78.3854
19.5	-14.5	60.5696
-28	-14	64.297
-9.000000	-14	193.588
10	-14	98.1125
29	-14	90.5305
-18.5	-13.5	145.223
0.500000	-13.5	98.9194
19.5	-13.5	290.998
-28	-13	1265.65
-9.000000	-13	150.984
10	-13	105.97
29	-13	92.2068
-18.5	-12.5	164.189
0.500000	-12.5	117.661
19.5	-12.5	922.781
-28	-12	224.401
-9.000000	-12	146.25
10	-12	61.7611
29	-12	103.008
-18.5	-11.5	161.174
0.500000	-11.5	100.77
19.5	-11.5	96.7632
-28	-11	46.9174
-9.000000	-11	172.569
10	-11	86.2849
29	-11	208.17
-18.5	-10.5	169.822
0.500000	-10.5	125.858
19.5	-10.5	96.9792
-28	-10	149.026
-9.000000	-10	180.111
10	-10	80.0932
29	-10	3.363928
-18.5	-9.500000	153.925
0.500000	-9.500000	106.744
19.5	-9.500000	74.2066
-28	-9.000000	168.706
-9.000000	-9.000000	195.75
10	-9.000000	92.3677
29	-9.000000	80.8614
-18.5	-8.500000	167.222
0.500000	-8.500000	135.834
19.5	-8.500000	85.5467
-28	-8.000000	121.329
-9.000000	-8.000000	159.41
10	-8.000000	93.8465
29	-8.000000	73.12
-18.5	-7.500000	214.17
0.500000	-7.500000	152.996
19.5	-7.500000	149.958
-28	-7.000000	161.977
-9.000000	-7.000000	125.373
10	-7.000000	103.381
29	-7.000000	73.0623
-18.5	-6.500000	174.54
0.500000	-6.500000	128.431
19.5	-6.500000	135.323
-28	-6.000000	125.744
-9.000000	-6.000000	143.658
10	-6.000000	148.915
29	-6.000000	70.5775
-18.5	-5.500000	148.133
0.500000	-5.500000	139.31
19.5	-5.500000	186.521
-28	-5.000000	140.27
-9.000000	-5.000000	1502.47
10	-5.000000	99.4626
29	-5.000000	144.819
-18.5	-4.500000	147.572
0.500000	-4.500000	140.781
19.5	-4.500000	134.136
-28	-4.000000	91.8683
-9.000000	-4.000000	258.032
10	-4.000000	74.5984
29	-4.000000	82.9778
-18.5	-3.500000	107.989
0.500000	-3.500000	156.361
19.5	-3.500000	121.764
-28	-3.000000	93.7227
-9.000000	-3.000000	1460.82
10	-3.000000	129.62
29	-3.000000	142.436
-18.5	-2.500000	135.861
0.500000	-2.500000	172.538
19.5	-2.500000	126.108
-28	-2.000000	102.579
-9.000000	-2.000000	127.497
10	-2.000000	182.76
29	-2.000000	118.915
-18.5	-1.500000	132.558
0.500000	-1.500000	114.123
19.5	-1.500000	108.745
-28	-1.000000	123.112
-9.000000	-1.000000	111.535
10	-1.000000	130.284
29	-1.000000	128.802
-18.5	-0.500000	149.423
0.500000	-0.500000	107.587
19.5	-0.500000	118.345
-28	0.000000	125.162
-9.000000	0.000000	127.81
10	0.000000	140.365
29	0.000000	97.9703
-18.5	0.500000	146.251
0.500000	0.500000	133.886
19.5	0.500000	132.084
-28	1.000000	176.537
-9.000000	1.000000	119.757
10	1.000000	103.649
29	1.000000	158.858
-18.5	1.500000	121.974
0.500000	1.500000	126.97
19.5	1.500000	108.242
-28	2.000000	121.695
-9.000000	2.000000	109.908
10	2.000000	114.578
29	2.000000	110.273
-18.5	2.500000	135.397
0.500000	2.500000	108.983
19.5	2.500000	128.62
-28	3.000000	137.469
-9.000000	3.000000	113.786
10	3.000000	136.721
29	3.000000	103.985
-18.5	3.500000	95.2254
0.500000	3.500000	104.777
19.5	3.500000	116.523
-28	4.000000	158.061
-9.000000	4.000000	105.826
10	4.000000	123.687
29	4.000000	98.0586
-18.5	4.500000	109.614
0.500000	4.500000	121.874
19.5	4.500000	158.29
-28	5.000000	130.347
-9.000000	5.000000	122.983
10	5.000000	122.64
29	5.000000	127.452
-18.5	5.500000	122.991
0.500000	5.500000	129.618
19.5	5.500000	140.78
-28	6.000000	149.912
-9.000000	6.000000	152.895
10	6.000000	90.3385
29	6.000000	101.01
-18.5	6.500000	98.9154
0.500000	6.500000	155.764
19.5	6.500000	109.829
-28	7.000000	128.477
-9.000000	7.000000	196.433
10	7.000000	80.5578
29	7.000000	136.277
-18.5	7.500000	106.773
0.500000	7.500000	114.455
19.5	7.500000	103.123
-28	8.000000	68.392
-9.000000	8.000000	132.801
10	8.000000	80.5172
29	8.000000	114.908
-18.5	8.500000	115.978
0.500000	8.500000	114.029
19.5	8.500000	100.423
-28	9.000000	1.544280
-9.000000	9.000000	176.753
10	9.000000	102.776
29	9.000000	128.945
-18.5	9.500000	118.985
0.500000	9.500000	113.385
19.5	9.500000	125.801
-28	10	1214.62
-9.000000	10	155.709
10	10	105.193
29	10	142.945
-18.5	10.5	739.718
0.500000	10.5	87.7534
19.5	10.5	109.721
-28	11	344.302
-9.000000	11	165.178
10	11	91.9836
29	11	150.769
-18.5	11.5	145.423
0.500000	11.5	84.7384
19.5	11.5	129.818
-28	12	62.4317
-9.000000	12	128.956
10	12	84.1741
29	12	129.911
-18.5	12.5	1495.03
0.500000	12.5	102.489
19.5	12.5	110.441
-28	13	989.662
-9.000000	13	154.336
10	13	77.9993
29	13	130.716
-18.5	13.5	67.0071
0.500000	13.5	147.033
19.5	13.5	100.598
-28	14	1722.16
-9.000000	14	159.944
10	14	117.885
29	14	121.631
-18.5	14.5	1814.68
0.500000	14.5	144.396
19.5	14.5	117.919
-28	15	1388.72
-9.000000	15	155.697
10	15	156.932
29	15	183.429
-18.5	15.5	0.639823
0.500000	15.5	90.449
19.5	15.5	131.161
-28	16	1.807410
-9.000000	16	166.104
10	16	133.251
29	16	146.459
-18.5	16.5	3.581948
0.500000	16.5	327.285
19.5	16.5	97.7104
-28	17	34.0084
-9.000000	17	127.789
10	17	105.18
29	17	135.436
-18.5	17.5	37.7321
0.500000	17.5	144.744
19.5	17.5	97.5271
-28	18	351.296
-9.000000	18	114.612
10	18	130.378
29	18	78.1907
-18.5	18.5	2101.68
0.500000	18.5	107.78
19.5	18.5	91.9824
-28	19	126.543
-9.000000	19	88.0988
10	19	104.695
29	19	709.416
-18.5	19.5	411.124
0.500000	19.5	95.088
19.5	19.5	105.784
-28	20	107.341
-9.000000	20	87.8885
10	20	127.961
29	20	0.639823
38	20	1466.07

File: 2D int.txt
#XList		#YList		#IList
-28	-22	2.679912
-9.000000	-22	93.3271
10	-22	89.8069
29	-22	22.4522
-18.5	-21.5	76.196
0.500000	-21.5	72.2998
19.5	-21.5	109.803
-28	-21	1.938757
-9.000000	-21	59.8162
10	-21	72.2492
29	-21	69.1486
-18.5	-20.5	72.5198
0.500000	-20.5	6.167353
19.5	-20.5	104.194
-28	-20	0.504952
-9.000000	-20	42.8982
10	-20	74.3693
29	-20	111.866
-18.5	-19.5	76.4914
0.500000	-19.5	2.175454
19.5	-19.5	99.0101
-28	-19	0.954149
-9.000000	-19	21.9503
10	-19	74.5934
29	-19	105.981
-18.5	-18.5	96.8401
0.500000	-18.5	2.241112
19.5	-18.5	90.2541
-28	-18	4.564296
-9.000000	-18	1.832931
10	-18	74.4445
29	-18	43.082
-18.5	-17.5	70.504
0.500000	-17.5	71.564
19.5	-17.5	80.6124
-28	-17	86.8352
-9.000000	-17	1.269091
10	-17	78.7236
29	-17	41.9774
-18.5	-16.5	82.1815
0.500000	-16.5	84.4449
19.5	-16.5	80.628
-28	-16	76.6698
-9.000000	-16	29.5688
10	-16	63.505
29	-16	83.3608
-18.5	-15.5	80.9414
0.500000	-15.5	104.873
19.5	-15.5	64.9765
-28	-15	119.106
-9.000000	-15	104.402
10	-15	73.4686
29	-15	76.1306
-18.5	-14.5	75.6134
0.500000	-14.5	143.431
19.5	-14.5	6.411913
-28	-14	5.502409
-9.000000	-14	62.4347
10	-14	62.3855
29	-14	114.565
-18.5	-13.5	43.1074
0.500000	-13.5	104.572
19.5	-13.5	2.029473
-28	-13	2.355817
-9.000000	-13	65.9858
10	-13	14.373
29	-13	149.209
-18.5	-12.5	14.2631
0.500000	-12.5	70.6308
19.5	-12.5	6.355599
-28	-12	4.353969
-9.000000	-12	86.2348
10	-12	9.128281
29	-12	122.99
-18.5	-11.5	67.6339
0.500000	-11.5	51.098
19.5	-11.5	27.2685
-28	-11	3.824979
-9.000000	-11	85.2275
10	-11	102.129
29	-11	7.036489
-18.5	-10.5	73.3188
0.500000	-10.5	80.021
19.5	-10.5	134.446
-28	-10	33.0103
-9.000000	-10	72.7447
10	-10	93.1191
29	-10	7.889092
-18.5	-9.500000	79.0438
0.500000	-9.500000	87.9024
19.5	-9.500000	124.051
-28	-9.000000	33.0375
-9.000000	-9.000000	69.1767
10	-9.000000	133.076
29	-9.000000	12.5981
-18.5	-8.500000	72.3235
0.500000	-8.500000	99.6752
19.5	-8.500000	126.726
-28	-8.000000	6.566416
-9.000000	-8.000000	62.8224
10	-8.000000	137.508
29	-8.000000	129.216
-18.5	-7.500000	87.0861
0.500000	-7.500000	104.087
19.5	-7.500000	23.162
-28	-7.000000	11.1658
-9.000000	-7.000000	84.5037
10	-7.000000	54.4804
29	-7.000000	112.874
-18.5	-6.500000	61.6879
0.500000	-6.500000	82.4989
19.5	-6.500000	56.8205
-28	-6.000000	21.7375
-9.000000	-6.000000	40.9656
10	-6.000000	57.8673
29	-6.000000	113.724
-18.5	-5.500000	71.4799
0.500000	-5.500000	58.6321
19.5	-5.500000	55.1417
-28	-5.000000	32.8452
-9.000000	-5.000000	2.614864
10	-5.000000	103.306
29	-5.000000	31.0977
-18.5	-4.500000	86.6926
0.500000	-4.500000	54.0955
19.5	-4.500000	42.7865
-28	-4.000000	31.2515
-9.000000	-4.000000	0.000000
10	-4.000000	115.188
29	-4.000000	133.138
-18.5	-3.500000	52.9392
0.500000	-3.500000	62.3212
19.5	-3.500000	45.6953
-28	-3.000000	30.1424
-9.000000	-3.000000	2.212563
10	-3.000000	111.069
29	-3.000000	70.6158
-18.5	-2.500000	56.3554
0.500000	-2.500000	64.1209
19.5	-2.500000	52.1687
-28	-2.000000	38.4456
-9.000000	-2.000000	15.3947
10	-2.000000	68.582
29	-2.000000	95.0735
-18.5	-1.500000	42.8568
0.500000	-1.500000	60.5259
19.5	-1.500000	46.2693
-28	-1.000000	35.6251
-9.000000	-1.000000	70.3243
10	-1.000000	68.8708
29	-1.000000	97.0601
-18.5	-0.500000	70.0498
0.500000	-0.500000	24.2621
19.5	-0.500000	43.4253
-28	0.000000	26.2659
-9.000000	0.000000	72.2823
10	0.000000	81.721
29	0.000000	72.295
-18.5	0.500000	94.7473
0.500000	0.500000	61.5207
19.5	0.500000	50.411
-28	1.000000	35.5898
-9.000000	1.000000	87.0924
10	1.000000	125.184
29	1.000000	67.0065
-18.5	1.500000	88.29
0.500000	1.500000	71.3422
19.5	1.500000	50.6514
-28	2.000000	85.2713
-9.000000	2.000000	89.4761
10	2.000000	118.336
29	2.000000	95.598
-18.5	2.500000	79.9159
0.500000	2.500000	98.6878
19.5	2.500000	50.8543
-28	3.000000	112.805
-9.000000	3.000000	92.2838
10	3.000000	78.9467
29	3.000000	98.442
-18.5	3.500000	86.8597
0.500000	3.500000	107.819
19.5	3.500000	49.455
-28	4.000000	95.7425
-9.000000	4.000000	97.2118
10	4.000000	79.2719
29	4.000000	109.113
-18.5	4.500000	91.4241
0.500000	4.500000	90.5106
19.5	4.500000	44.4508
-28	5.000000	91.442
-9.000000	5.000000	85.156
10	5.000000	67.4877
29	5.000000	85.815
-18.5	5.500000	102.881
0.500000	5.500000	92.0413
19.5	5.500000	45.1652
-28	6.000000	75.0505
-9.000000	6.000000	94.4163
10	6.000000	67.0896
29	6.000000	57.1187
-18.5	6.500000	122.076
0.500000	6.500000	86.6938
19.5	6.500000	69.3305
-28	7.000000	48.379
-9.000000	7.000000	73.4673
10	7.000000	85.8921
29	7.000000	66.0763
-18.5	7.500000	108.14
0.500000	7.500000	84.7879
19.5	7.500000	90.7666
-28	8.000000	5.658742
-9.000000	8.000000	62.0593
10	8.000000	91.2661
29	8.000000	47.9367
-18.5	8.500000	99.4524
0.500000	8.500000	72.3841
19.5	8.500000	51.7003
-28	9.000000	3.604139
-9.000000	9.000000	75.7014
10	9.000000	125.753
29	9.000000	49.9177
-18.5	9.500000	47.9965
0.500000	9.500000	119.059
19.5	9.500000	77.4016
-28	10	3.611977
-9.000000	10	71.4867
10	10	90.7823
29	10	62.3105
-18.5	10.5	7.115297
0.500000	10.5	141.903
19.5	10.5	75.4333
-28	11	3.736077
-9.000000	11	77.2748
10	11	93.3899
29	11	62.3246
-18.5	11.5	11.1157
0.500000	11.5	130.164
19.5	11.5	91.4736
-28	12	6.696233
-9.000000	12	79.1743
10	12	82.2454
29	12	55.8505
-18.5	12.5	1.474002
0.500000	12.5	116.334
19.5	12.5	101.522
-28	13	1.725365
-9.000000	13	98.8792
10	13	103.967
29	13	60.999
-18.5	13.5	0.906849
0.500000	13.5	84.9528
19.5	13.5	104.791
-28	14	1.910031
-9.000000	14	98.8037
10	14	119.49
29	14	65.2226
-18.5	14.5	1.449817
0.500000	14.5	11.8427
19.5	14.5	113.727
-28	15	1.570993
-9.000000	15	49.025
10	15	46.7039
29	15	63.1727
-18.5	15.5	0.000000
0.500000	15.5	42.7516
19.5	15.5	86.4725
-28	16	10.2503
-9.000000	16	61.7046
10	16	76.1235
29	16	66.7579
-18.5	16.5	4.006058
0.500000	16.5	3.607882
19.5	16.5	98.9472
-28	17	2.292901
-9.000000	17	92.0788
10	17	20.5771
29	17	45.3438
-18.5	17.5	0.334402
0.500000	17.5	24.4612
19.5	17.5	78.8148
-28	18	1.233935
-9.000000	18	76.2297
10	18	9.954467
29	18	28.8011
-18.5	18.5	1.220032
0.500000	18.5	35.873
19.5	18.5	95.1042
-28	19	12.7333
-9.000000	19	61.0156
10	19	37.1624
29	19	2.824022
-18.5	19.5	0.000000
0.500000	19.5	128.613
19.5	19.5	131.615
-28	20	149.358
-9.000000	20	15.1617
10	20	36.6085
29	20	0.000000
38	20	1.971184

File: 2D pos.txt
#XList		#YList		#IList
-28	-22	2669.87
-9.000000	-22	2689.65
10	-22	2688.34
29	-22	2712.81
-18.5	-21.5	2692.96
0.500000	-21.5	2685.84
19.5	-21.5	2693.72
-28	-21	2650
-9.000000	-21	2686.64
10	-21	2689.22
29	-21	2711.69
-18.5	-20.5	2688.54
0.500000	-20.5	2710.02
19.5	-20.5	2692.93
-28	-20	2676.55
-9.000000	-20	2691.34
10	-20	2689.63
29	-20	2712.6
-18.5	-19.5	2687.01
0.500000	-19.5	2664.24
19.5	-19.5	2696.08
-28	-19	2650
-9.000000	-19	2696.41
10	-19	2690.51
29	-19	2707.66
-18.5	-18.5	2699.85
0.500000	-18.5	2703.19
19.5	-18.5	2689.85
-28	-18	2700.42
-9.000000	-18	2690.32
10	-18	2684.07
29	-18	2694.94
-18.5	-17.5	2711.5
0.500000	-17.5	2708.59
19.5	-17.5	2692.79
-28	-17	2707.15
-9.000000	-17	2657.75
10	-17	2679.14
29	-17	2696.69
-18.5	-16.5	2696.93
0.500000	-16.5	2710.44
19.5	-16.5	2700.37
-28	-16	2710.36
-9.000000	-16	2705.71
10	-16	2684.7
29	-16	2712.37
-18.5	-15.5	2685.67
0.500000	-15.5	2714.86
19.5	-15.5	2700.81
-28	-15	2706.57
-9.000000	-15	2691.74
10	-15	2689.26
29	-15	2712.7
-18.5	-14.5	2685.06
0.500000	-14.5	2707.23
19.5	-14.5	2686.49
-28	-14	2710.04
-9.000000	-14	2696.37
10	-14	2696.89
29	-14	2711.41
-18.5	-13.5	2683.15
0.500000	-13.5	2693.91
19.5	-13.5	2650
-28	-13	2692.07
-9.000000	-13	2688.76
10	-13	2690.76
29	-13	2706.25
-18.5	-12.5	2710.3
0.500000	-12.5	2696.9
19.5	-12.5	2750
-28	-12	2740.77
-9.000000	-12	2682.69
10	-12	2707.94
29	-12	2702.48
-18.5	-11.5	2687.06
0.500000	-11.5	2695.6
19.5	-11.5	2693.47
-28	-11	2721.73
-9.000000	-11	2685.54
10	-11	2704.1
29	-11	2719.93
-18.5	-10.5	2682.25
0.500000	-10.5	2692.72
19.5	-10.5	2703.89
-28	-10	2687.76
-9.000000	-10	2686.66
10	-10	2706.59
29	-10	2686.23
-18.5	-9.500000	2691.2
0.500000	-9.500000	2698.68
19.5	-9.500000	2710.02
-28	-9.000000	2691.18
-9.000000	-9.000000	2682.96
10	-9.000000	2704.47
29	-9.000000	2702.3
-18.5	-8.500000	2685.58
0.500000	-8.500000	2694.86
19.5	-8.500000	2706.01
-28	-8.000000	2690.06
-9.000000	-8.000000	2689.21
10	-8.000000	2704.52
29	-8.000000	2709.6
-18.5	-7.500000	2690.24
0.500000	-7.500000	2694.84
19.5	-7.500000	2689.02
-28	-7.000000	2707.71
-9.000000	-7.000000	2695.54
10	-7.000000	2695.18
29	-7.000000	2713.12
-18.5	-6.500000	2690.65
0.500000	-6.500000	2693.96
19.5	-6.500000	2689
-28	-6.000000	2710.07
-9.000000	-6.000000	2691.63
10	-6.000000	2690.52
29	-6.000000	2712.78
-18.5	-5.500000	2697.86
0.500000	-5.500000	2697.29
19.5	-5.500000	2689.44
-28	-5.000000	2704.39
-9.000000	-5.000000	2750
10	-5.000000	2701.06
29	-5.000000	2706.12
-18.5	-4.500000	2699.57
0.500000	-4.500000	2695.27
19.5	-4.500000	2688.48
-28	-4.000000	2708.08
-9.000000	-4.000000	2750
10	-4.000000	2709.41
29	-4.000000	2703.68
-18.5	-3.500000	2697.71
0.500000	-3.500000	2695.83
19.5	-3.500000	2699.19
-28	-3.000000	2702.41
-9.000000	-3.000000	2650
10	-3.000000	2700.68
29	-3.000000	2694.11
-18.5	-2.500000	2694.65
0.500000	-2.500000	2690.18
19.5	-2.500000	2693.67
-28	-2.000000	2702.89
-9.000000	-2.000000	2699.47
10	-2.000000	2686.03
29	-2.000000	2694.31
-18.5	-1.500000	2698.18
0.500000	-1.500000	2697.8
19.5	-1.500000	2698.16
-28	-1.000000	2706.81
-9.000000	-1.000000	2686.85
10	-1.000000	2687.69
29	-1.000000	2693.64
-18.5	-0.500000	2690
0.500000	-0.500000	2704.18
19.5	-0.500000	2696.22
-28	0.000000	2706.73
-9.000000	0.000000	2690.29
10	0.000000	2687.66
29	0.000000	2691.5
-18.5	0.500000	2693.14
0.500000	0.500000	2689.07
19.5	0.500000	2699.3
-28	1.000000	2705.62
-9.000000	1.000000	2692.51
10	1.000000	2693.52
29	1.000000	2689.7
-18.5	1.500000	2696.42
0.500000	1.500000	2693.56
19.5	1.500000	2698.72
-28	2.000000	2706.66
-9.000000	2.000000	2699.1
10	2.000000	2692.62
29	2.000000	2694.62
-18.5	2.500000	2688.48
0.500000	2.500000	2702.36
19.5	2.500000	2695.68
-28	3.000000	2705.96
-9.000000	3.000000	2704.38
10	3.000000	2694.25
29	3.000000	2699.01
-18.5	3.500000	2695.45
0.500000	3.500000	2697.57
19.5	3.500000	2693.76
-28	4.000000	2700.32
-9.000000	4.000000	2694.1
10	4.000000	2702.19
29	4.000000	2700.1
-18.5	4.500000	2698.01
0.500000	4.500000	2695.7
19.5	4.500000	2694.67
-28	5.000000	2697.55
-9.000000	5.000000	2699.9
10	5.000000	2707.99
29	5.000000	2699.54
-18.5	5.500000	2698.94
0.500000	5.500000	2698.57
19.5	5.500000	2692.33
-28	6.000000	2697.82
-9.000000	6.000000	2694.25
10	6.000000	2709.04
29	6.000000	2694.56
-18.5	6.500000	2705.11
0.500000	6.500000	2698.12
19.5	6.500000	2695.47
-28	7.000000	2698.57
-9.000000	7.000000	2696.8
10	7.000000	2710.68
29	7.000000	2691.13
-18.5	7.500000	2704.03
0.500000	7.500000	2697.17
19.5	7.500000	2693.75
-28	8.000000	2697.19
-9.000000	8.000000	2695.59
10	8.000000	2712.81
29	8.000000	2691.16
-18.5	8.500000	2700.39
0.500000	8.500000	2690.04
19.5	8.500000	2693.95
-28	9.000000	2749.82
-9.000000	9.000000	2694.27
10	9.000000	2699.47
29	9.000000	2692.58
-18.5	9.500000	2697.54
0.500000	9.500000	2696.55
19.5	9.500000	2692.82
-28	10	2732.72
-9.000000	10	2692.77
10	10	2701.44
29	10	2692.57
-18.5	10.5	2748.44
0.500000	10.5	2697.5
19.5	10.5	2693.2
-28	11	2731.52
-9.000000	11	2697.27
10	11	2705.24
29	11	2691.78
-18.5	11.5	2697.55
0.500000	11.5	2698.85
19.5	11.5	2697.92
-28	12	2705.74
-9.000000	12	2691.19
10	12	2709.38
29	12	2690.97
-18.5	12.5	2650
0.500000	12.5	2696.94
19.5	12.5	2697.9
-28	13	2704.4
-9.000000	13	2693.45
10	13	2711.01
29	13	2688.95
-18.5	13.5	2650
0.500000	13.5	2690.91
19.5	13.5	2697.97
-28	14	2650
-9.000000	14	2694.12
10	14	2700.94
29	14	2693.03
-18.5	14.5	2650
0.500000	14.5	2700.09
19.5	14.5	2698
-28	15	2750
-9.000000	15	2695.49
10	15	2693.32
29	15	2691.66
-18.5	15.5	2750
0.500000	15.5	2701.99
19.5	15.5	2694.2
-28	16	2688.76
-9.000000	16	2692.16
10	16	2692.11
29	16	2684.37
-18.5	16.5	2744.62
0.500000	16.5	2700.94
19.5	16.5	2702.28
-28	17	2703.07
-9.000000	17	2692.18
10	17	2700.69
29	17	2691
-18.5	17.5	2750
0.500000	17.5	2698.51
19.5	17.5	2703.8
-28	18	2650
-9.000000	18	2701.43
10	18	2718.15
29	18	2706.07
-18.5	18.5	2650
0.500000	18.5	2701.97
19.5	18.5	2704.74
-28	19	2708.79
-9.000000	19	2702.17
10	19	2688.33
29	19	2663.03
-18.5	19.5	2650
0.500000	19.5	2704.56
19.5	19.5	2703.94
-28	20	2702.24
-9.000000	20	2710.18
10	20	2697.82
29	20	2750
38	20	2650

File: 2Dp FWHM.txt
#XList		#YList		#IList
-28	-22	2595.12
-9.000000	-22	105.487
10	-22	154.699
29	-22	217.191
-18.5	-21.5	58.3501
0.500000	-21.5	90.1064
19.5	-21.5	149.528
-28	-21	294.87
-9.000000	-21	111.438
10	-21	153.658
29	-21	95.4077
-18.5	-20.5	145.677
0.500000	-20.5	115.673
19.5	-20.5	112.243
-28	-20	2514.73
-9.000000	-20	52.3143
10	-20	122.18
29	-20	154.655
-18.5	-19.5	92.9682
0.500000	-19.5	187.684
19.5	-19.5	174.037
-28	-19	1478.83
-9.000000	-19	107.149
10	-19	48.218
29	-19	128.637
-18.5	-18.5	96.2198
0.500000	-18.5	2507.35
19.5	-18.5	116.472
-28	-18	1708.43
-9.000000	-18	82.0171
10	-18	137.804
29	-18	111.45
-18.5	-17.5	22.1876
0.500000	-17.5	22.3244
19.5	-17.5	65.3644
-28	-17	25.1403
-9.000000	-17	1292.5
10	-17	159.885
29	-17	144.801
-18.5	-16.5	96.6483
0.500000	-16.5	182.876
19.5	-16.5	51.8609
-28	-16	114.537
-9.000000	-16	135.327
10	-16	86.5192
29	-16	135.383
-18.5	-15.5	155.902
0.500000	-15.5	51.5675
19.5	-15.5	111.664
-28	-15	14.0863
-9.000000	-15	183.897
10	-15	125.716
29	-15	87.0956
-18.5	-14.5	82.0834
0.500000	-14.5	82.1847
19.5	-14.5	20.6553
-28	-14	2595.12
-9.000000	-14	148.726
10	-14	54.5219
29	-14	236.013
-18.5	-13.5	18.3276
0.500000	-13.5	81.2611
19.5	-13.5	2117.75
-28	-13	250.523
-9.000000	-13	116.835
10	-13	16.292
29	-13	185.996
-18.5	-12.5	46.6684
0.500000	-12.5	132.965
19.5	-12.5	328.266
-28	-12	266.075
-9.000000	-12	107.784
10	-12	1707.21
29	-12	155.654
-18.5	-11.5	106.354
0.500000	-11.5	43.0423
19.5	-11.5	37.1948
-28	-11	1823.93
-9.000000	-11	129.226
10	-11	35.6704
29	-11	426.686
-18.5	-10.5	109.276
0.500000	-10.5	146.872
19.5	-10.5	134.497
-28	-10	61.8984
-9.000000	-10	131.252
10	-10	94.3375
29	-10	2595.12
-18.5	-9.500000	181.56
0.500000	-9.500000	105.485
19.5	-9.500000	8.345836
-28	-9.000000	155.998
-9.000000	-9.000000	126.368
10	-9.000000	134.908
29	-9.000000	85.3776
-18.5	-8.500000	93.0586
0.500000	-8.500000	134.959
19.5	-8.500000	28.9701
-28	-8.000000	142.601
-9.000000	-8.000000	121.043
10	-8.000000	156.502
29	-8.000000	26.0901
-18.5	-7.500000	168.561
0.500000	-7.500000	176.614
19.5	-7.500000	116.818
-28	-7.000000	154.225
-9.000000	-7.000000	156.623
10	-7.000000	56.5102
29	-7.000000	247.754
-18.5	-6.500000	133.082
0.500000	-6.500000	149.628
19.5	-6.500000	100.655
-28	-6.000000	96.2615
-9.000000	-6.000000	128.067
10	-6.000000	66.3313
29	-6.000000	10.6156
-18.5	-5.500000	157.774
0.500000	-5.500000	86.6529
19.5	-5.500000	224.184
-28	-5.000000	106.316
-9.000000	-5.000000	5.659247
10	-5.000000	130.859
29	-5.000000	77.7475
-18.5	-4.500000	125.135
0.500000	-4.500000	130.581
19.5	-4.500000	107.86
-28	-4.000000	71.2129
-9.000000	-4.000000	1133.01
10	-4.000000	85.8529
29	-4.000000	22.9113
-18.5	-3.500000	84.1571
0.500000	-3.500000	137.092
19.5	-3.500000	103.086
-28	-3.000000	118.52
-9.000000	-3.000000	0.639823
10	-3.000000	132.336
29	-3.000000	152.299
-18.5	-2.500000	94.3096
0.500000	-2.500000	126.134
19.5	-2.500000	138.264
-28	-2.000000	102.98
-9.000000	-2.000000	121.089
10	-2.000000	137.39
29	-2.000000	176.858
-18.5	-1.500000	68.7241
0.500000	-1.500000	75.0479
19.5	-1.500000	125.319
-28	-1.000000	162.317
-9.000000	-1.000000	95.9638
10	-1.000000	74.1634
29	-1.000000	165.109
-18.5	-0.500000	156.024
0.500000	-0.500000	131.8
19.5	-0.500000	171.612
-28	0.000000	123.589
-9.000000	0.000000	63.6877
10	0.000000	120.385
29	0.000000	41.9151
-18.5	0.500000	138.369
0.500000	0.500000	159.308
19.5	0.500000	117.159
-28	1.000000	110.272
-9.000000	1.000000	143.096
10	1.000000	152.426
29	1.000000	157.092
-18.5	1.500000	134.317
0.500000	1.500000	96.6497
19.5	1.500000	102.637
-28	2.000000	132.793
-9.000000	2.000000	148.434
10	2.000000	155.449
29	2.000000	102.469
-18.5	2.500000	159.142
0.500000	2.500000	116.569
19.5	2.500000	146.285
-28	3.000000	154.503
-9.000000	3.000000	224.915
10	3.000000	97.006
29	3.000000	152.214
-18.5	3.500000	69.8712
0.500000	3.500000	130.338
19.5	3.500000	60.606
-28	4.000000	183.026
-9.000000	4.000000	180.403
10	4.000000	138.046
29	4.000000	138.666
-18.5	4.500000	116.919
0.500000	4.500000	102.723
19.5	4.500000	155.876
-28	5.000000	163.251
-9.000000	5.000000	133.227
10	5.000000	135.823
29	5.000000	290.833
-18.5	5.500000	112.537
0.500000	5.500000	171.32
19.5	5.500000	163.04
-28	6.000000	176.526
-9.000000	6.000000	138.773
10	6.000000	118.097
29	6.000000	105.392
-18.5	6.500000	180.219
0.500000	6.500000	232.481
19.5	6.500000	147.957
-28	7.000000	146.686
-9.000000	7.000000	150.891
10	7.000000	69.3837
29	7.000000	123.24
-18.5	7.500000	129.043
0.500000	7.500000	94.6826
19.5	7.500000	153.611
-28	8.000000	21.8555
-9.000000	8.000000	62.7082
10	8.000000	123.254
29	8.000000	130.886
-18.5	8.500000	123.274
0.500000	8.500000	102.441
19.5	8.500000	97.3849
-28	9.000000	2189.58
-9.000000	9.000000	138.449
10	9.000000	203.123
29	9.000000	129.591
-18.5	9.500000	67.515
0.500000	9.500000	162.588
19.5	9.500000	156.769
-28	10	42.1937
-9.000000	10	125.363
10	10	159.179
29	10	146.549
-18.5	10.5	16.7972
0.500000	10.5	145.654
19.5	10.5	103.595
-28	11	246.869
-9.000000	11	145.367
10	11	115.77
29	11	133.059
-18.5	11.5	47.0616
0.500000	11.5	28.7435
19.5	11.5	154.41
-28	12	2595.12
-9.000000	12	87.3223
10	12	61.3677
29	12	173.281
-18.5	12.5	2.651392
0.500000	12.5	150.169
19.5	12.5	174.793
-28	13	5.936460
-9.000000	13	177.039
10	13	127.167
29	13	82.5484
-18.5	13.5	2595.12
0.500000	13.5	208.927
19.5	13.5	98.4201
-28	14	119.018
-9.000000	14	233.356
10	14	136.539
29	14	133.935
-18.5	14.5	1562.02
0.500000	14.5	0.639823
19.5	14.5	142.894
-28	15	9.692891
-9.000000	15	133.885
10	15	95.1422
29	15	155.333
-18.5	15.5	2595.12
0.500000	15.5	103.846
19.5	15.5	139.102
-28	16	2595.12
-9.000000	16	151.468
10	16	125.477
29	16	129.836
-18.5	16.5	2595.12
0.500000	16.5	976.194
19.5	16.5	112.854
-28	17	2595.12
-9.000000	17	132.112
10	17	22.0389
29	17	0.639823
-18.5	17.5	2595.12
0.500000	17.5	5.996194
19.5	17.5	134.274
-28	18	223.963
-9.000000	18	144.798
10	18	45.5734
29	18	2595.12
-18.5	18.5	161.644
0.500000	18.5	87.1153
19.5	18.5	150.18
-28	19	261.25
-9.000000	19	125.6
10	19	18.4965
29	19	110.552
-18.5	19.5	2595.12
0.500000	19.5	148.765
19.5	19.5	187.144
-28	20	140.58
-9.000000	20	70.3759
10	20	69.5817
29	20	2595.12
38	20	145.443