Folder: graphene-production/data/derived_data/raman/20170920_Gr-NH2_for_Radisurf/20170920 Gr-NH for Radisurf map 2 (part 4)

File: DDp FWHM.txt
#XList		#YList		#IList
-39.3414	-21.065	183.123
-30.3414	-21.065	195.34
-21.3414	-21.065	177.479
-12.3414	-21.065	197.568
-3.341423	-21.065	175.455
5.658577	-21.065	125.131
14.6586	-21.065	173.043
23.6586	-21.065	178.092
-32.3414	-20.065	280.99
-23.3414	-20.065	166.302
-14.3414	-20.065	180.162
-5.341423	-20.065	185.394
3.658577	-20.065	164.227
12.6586	-20.065	165.774
21.6586	-20.065	189.149
-34.3414	-19.065	156.023
-25.3414	-19.065	179.33
-16.3414	-19.065	193.029
-7.341423	-19.065	171.401
1.658577	-19.065	201.776
10.6586	-19.065	194.832
19.6586	-19.065	182.955
-36.3414	-18.065	180.953
-27.3414	-18.065	176.735
-18.3414	-18.065	171.866
-9.341423	-18.065	179.075
-0.341423	-18.065	212.397
8.658577	-18.065	287.357
17.6586	-18.065	182.236
-38.3414	-17.065	199.771
-29.3414	-17.065	182.44
-20.3414	-17.065	160.725
-11.3414	-17.065	198.458
-2.341423	-17.065	172.345
6.658577	-17.065	194.375
15.6586	-17.065	186.396
24.6586	-17.065	197.511
-31.3414	-16.065	199.881
-22.3414	-16.065	182.109
-13.3414	-16.065	286.586
-4.341423	-16.065	183.289
4.658577	-16.065	165.962
13.6586	-16.065	196.309
22.6586	-16.065	188.1
-33.3414	-15.065	278.102
-24.3414	-15.065	177.349
-15.3414	-15.065	191.922
-6.341423	-15.065	188.849
2.658577	-15.065	180.367
11.6586	-15.065	179.206
20.6586	-15.065	209.77
-35.3414	-14.065	204.79
-26.3414	-14.065	194.719
-17.3414	-14.065	193.236
-8.341423	-14.065	171.742
0.658577	-14.065	181.556
9.658577	-14.065	194.216
18.6586	-14.065	216.99
-37.3414	-13.065	188.053
-28.3414	-13.065	179.939
-19.3414	-13.065	174.268
-10.3414	-13.065	185.059
-1.341423	-13.065	202.441
7.658577	-13.065	203.553
16.6586	-13.065	185.022
-39.3414	-12.065	208.885
-30.3414	-12.065	194.386
-21.3414	-12.065	164.468
-12.3414	-12.065	180.352
-3.341423	-12.065	183.549
5.658577	-12.065	193.893
14.6586	-12.065	180.816
23.6586	-12.065	182.266
-32.3414	-11.065	186.921
-23.3414	-11.065	170.592
-14.3414	-11.065	190.503
-5.341423	-11.065	209.52
3.658577	-11.065	150.246
12.6586	-11.065	187.17
21.6586	-11.065	137.486
-34.3414	-10.065	199.35
-25.3414	-10.065	191.257
-16.3414	-10.065	188.969
-7.341423	-10.065	184.956
1.658577	-10.065	188.759
10.6586	-10.065	0.639823
19.6586	-10.065	143.709
-36.3414	-9.065000	204.164
-27.3414	-9.065000	195.44
-18.3414	-9.065000	157.791
-9.341423	-9.065000	218.606
-0.341423	-9.065000	190.178
8.658577	-9.065000	147.621
17.6586	-9.065000	181.142
-38.3414	-8.065000	197.596
-29.3414	-8.065000	201.319
-20.3414	-8.065000	133.307
-11.3414	-8.065000	187.77
-2.341423	-8.065000	183.98
6.658577	-8.065000	188.032
15.6586	-8.065000	208.422
24.6586	-8.065000	175.394
-31.3414	-7.065000	192.117
-22.3414	-7.065000	187.3
-13.3414	-7.065000	187.349
-4.341423	-7.065000	106.942
4.658577	-7.065000	181.603
13.6586	-7.065000	183.236
22.6586	-7.065000	183.318
-33.3414	-6.065000	196.37
-24.3414	-6.065000	279.41
-15.3414	-6.065000	200.747
-6.341423	-6.065000	197.59
2.658577	-6.065000	187.668
11.6586	-6.065000	197.668
20.6586	-6.065000	181.885
-35.3414	-5.065000	190.548
-26.3414	-5.065000	185.47
-17.3414	-5.065000	254.052
-8.341423	-5.065000	197.804
0.658577	-5.065000	172.407
9.658577	-5.065000	173.504
18.6586	-5.065000	168.492
-37.3414	-4.065000	183.947
-28.3414	-4.065000	185.683
-19.3414	-4.065000	183.341
-10.3414	-4.065000	222.108
-1.341423	-4.065000	160.686
7.658577	-4.065000	186.562
16.6586	-4.065000	191.302
-39.3414	-3.065000	0.639823
-30.3414	-3.065000	273.883
-21.3414	-3.065000	184.003
-12.3414	-3.065000	226.497
-3.341423	-3.065000	248.602
5.658577	-3.065000	183.806
14.6586	-3.065000	192.562
23.6586	-3.065000	159.796
-32.3414	-2.065000	163.442
-23.3414	-2.065000	272.322
-14.3414	-2.065000	191.939
-5.341423	-2.065000	197.921
3.658577	-2.065000	177.602
12.6586	-2.065000	188.256
21.6586	-2.065000	186.262
-34.3414	-1.065000	240.924
-25.3414	-1.065000	184.98
-16.3414	-1.065000	182.296
-7.341423	-1.065000	201.364
1.658577	-1.065000	184.692
10.6586	-1.065000	183.374
19.6586	-1.065000	185.153
-36.3414	-0.065000	183.979
-27.3414	-0.065000	2.345685
-18.3414	-0.065000	184.246
-9.341423	-0.065000	209.648
-0.341423	-0.065000	271.615
8.658577	-0.065000	194.42
17.6586	-0.065000	182.684
-38.3414	0.935000	3.385273
-29.3414	0.935000	136.682
-20.3414	0.935000	193.416
-11.3414	0.935000	302.501
-2.341423	0.935000	188.117
6.658577	0.935000	288.44
15.6586	0.935000	192.204
24.6586	0.935000	211.848
-31.3414	1.935000	168.56
-22.3414	1.935000	187.69
-13.3414	1.935000	202.529
-4.341423	1.935000	295.766
4.658577	1.935000	209.634
13.6586	1.935000	279.455
22.6586	1.935000	177.434
-33.3414	2.935000	191.947
-24.3414	2.935000	190.206
-15.3414	2.935000	63.0654
-6.341423	2.935000	191.462
2.658577	2.935000	180.019
11.6586	2.935000	183.445
20.6586	2.935000	161.73
-35.3414	3.935000	191.681
-26.3414	3.935000	179.246
-17.3414	3.935000	177.635
-8.341423	3.935000	184.875
0.658577	3.935000	186.254
9.658577	3.935000	184.567
18.6586	3.935000	263.485
-37.3414	4.935000	292.211
-28.3414	4.935000	190.824
-19.3414	4.935000	182.503
-10.3414	4.935000	201.231
-1.341423	4.935000	187.398
7.658577	4.935000	185.941
16.6586	4.935000	175.491
-39.3414	5.935000	196.748
-30.3414	5.935000	197.869
-21.3414	5.935000	170.385
-12.3414	5.935000	213.668
-3.341423	5.935000	181.178
5.658577	5.935000	181.46
14.6586	5.935000	188.669
23.6586	5.935000	191.409
-32.3414	6.935000	198.576
-23.3414	6.935000	172.775
-14.3414	6.935000	200.563
-5.341423	6.935000	186.601
3.658577	6.935000	210.066
12.6586	6.935000	191.135
21.6586	6.935000	188.386
-34.3414	7.935000	193.102
-25.3414	7.935000	175.359
-16.3414	7.935000	189.246
-7.341423	7.935000	156.991
1.658577	7.935000	186.328
10.6586	7.935000	282.57
19.6586	7.935000	134.552
-36.3414	8.935000	195.473
-27.3414	8.935000	194.499
-18.3414	8.935000	178.901
-9.341423	8.935000	142.45
-0.341423	8.935000	269.404
8.658577	8.935000	190.562
17.6586	8.935000	181.014
-38.3414	9.935000	195.868
-29.3414	9.935000	217.213
-20.3414	9.935000	183.407
-11.3414	9.935000	187.347
-2.341423	9.935000	176.73
6.658577	9.935000	141.293
15.6586	9.935000	56.7893
24.6586	9.935000	162.382
-31.3414	10.935	196.438
-22.3414	10.935	176.857
-13.3414	10.935	181.554
-4.341423	10.935	182.26
4.658577	10.935	180.485
13.6586	10.935	169.341
22.6586	10.935	183.021
-33.3414	11.935	206.861
-24.3414	11.935	149.585
-15.3414	11.935	208.916
-6.341423	11.935	176.124
2.658577	11.935	195.371
11.6586	11.935	190.885
20.6586	11.935	170.398
-35.3414	12.935	202.261
-26.3414	12.935	138.91
-17.3414	12.935	185.849
-8.341423	12.935	183.024
0.658577	12.935	188.081
9.658577	12.935	186.963
18.6586	12.935	212.86
-37.3414	13.935	192.907
-28.3414	13.935	171.498
-19.3414	13.935	197.369
-10.3414	13.935	183.366
-1.341423	13.935	171.776
7.658577	13.935	181.194
16.6586	13.935	0.639823
-39.3414	14.935	292.373
-30.3414	14.935	183.534
-21.3414	14.935	187.014
-12.3414	14.935	192.98
-3.341423	14.935	195.488
5.658577	14.935	177.033
14.6586	14.935	39.7613
23.6586	14.935	0.644574
-32.3414	15.935	198.913
-23.3414	15.935	202.23
-14.3414	15.935	272.074
-5.341423	15.935	198.75
3.658577	15.935	192.204
12.6586	15.935	184.65
21.6586	15.935	128.215
24.6586	15.935	20.0106

File: DDp int.txt
#XList		#YList		#IList
-39.3414	-21.065	70.5445
-30.3414	-21.065	303.573
-21.3414	-21.065	79.7991
-12.3414	-21.065	316.355
-3.341423	-21.065	16.4267
5.658577	-21.065	32.3621
14.6586	-21.065	167.364
23.6586	-21.065	0.000000
-32.3414	-20.065	264.209
-23.3414	-20.065	45.7462
-14.3414	-20.065	327.429
-5.341423	-20.065	117.762
3.658577	-20.065	51.5228
12.6586	-20.065	141.668
21.6586	-20.065	106.734
-34.3414	-19.065	9.808066
-25.3414	-19.065	190.895
-16.3414	-19.065	439.572
-7.341423	-19.065	175.389
1.658577	-19.065	42.1247
10.6586	-19.065	72.4632
19.6586	-19.065	226.648
-36.3414	-18.065	101.543
-27.3414	-18.065	199.004
-18.3414	-18.065	121.853
-9.341423	-18.065	172.071
-0.341423	-18.065	96.5831
8.658577	-18.065	400.929
17.6586	-18.065	155.34
-38.3414	-17.065	264.171
-29.3414	-17.065	197.624
-20.3414	-17.065	49.1479
-11.3414	-17.065	227.353
-2.341423	-17.065	98.271
6.658577	-17.065	145.583
15.6586	-17.065	280.723
24.6586	-17.065	197.872
-31.3414	-16.065	262.622
-22.3414	-16.065	183.564
-13.3414	-16.065	464.706
-4.341423	-16.065	164.164
4.658577	-16.065	38.2866
13.6586	-16.065	35.6068
22.6586	-16.065	117.054
-33.3414	-15.065	458.368
-24.3414	-15.065	220.002
-15.3414	-15.065	347.907
-6.341423	-15.065	125.32
2.658577	-15.065	73.7263
11.6586	-15.065	238.527
20.6586	-15.065	43.6052
-35.3414	-14.065	425.684
-26.3414	-14.065	247.876
-17.3414	-14.065	82.5483
-8.341423	-14.065	55.4467
0.658577	-14.065	166.325
9.658577	-14.065	315.968
18.6586	-14.065	36.673
-37.3414	-13.065	479.23
-28.3414	-13.065	239.706
-19.3414	-13.065	69.4405
-10.3414	-13.065	103.345
-1.341423	-13.065	113.509
7.658577	-13.065	349.628
16.6586	-13.065	59.9353
-39.3414	-12.065	369.145
-30.3414	-12.065	354.863
-21.3414	-12.065	52.3008
-12.3414	-12.065	128.33
-3.341423	-12.065	128.497
5.658577	-12.065	70.4076
14.6586	-12.065	106.151
23.6586	-12.065	165.012
-32.3414	-11.065	329.263
-23.3414	-11.065	178.314
-14.3414	-11.065	69.0707
-5.341423	-11.065	61.5914
3.658577	-11.065	26.2213
12.6586	-11.065	12.792
21.6586	-11.065	26.994
-34.3414	-10.065	362.017
-25.3414	-10.065	244.398
-16.3414	-10.065	127.436
-7.341423	-10.065	24.8861
1.658577	-10.065	159.371
10.6586	-10.065	15.4382
19.6586	-10.065	51.3815
-36.3414	-9.065000	411.069
-27.3414	-9.065000	429.517
-18.3414	-9.065000	53.0724
-9.341423	-9.065000	135.904
-0.341423	-9.065000	151.697
8.658577	-9.065000	6.089754
17.6586	-9.065000	133.096
-38.3414	-8.065000	348.778
-29.3414	-8.065000	356.865
-20.3414	-8.065000	45.8104
-11.3414	-8.065000	288.73
-2.341423	-8.065000	19.0862
6.658577	-8.065000	204.129
15.6586	-8.065000	104.02
24.6586	-8.065000	11.2987
-31.3414	-7.065000	407.573
-22.3414	-7.065000	27.4747
-13.3414	-7.065000	187.392
-4.341423	-7.065000	4.903596
4.658577	-7.065000	169.873
13.6586	-7.065000	169.309
22.6586	-7.065000	100.964
-33.3414	-6.065000	473.543
-24.3414	-6.065000	341.456
-15.3414	-6.065000	378.949
-6.341423	-6.065000	146.575
2.658577	-6.065000	75.0955
11.6586	-6.065000	160.471
20.6586	-6.065000	47.091
-35.3414	-5.065000	334.916
-26.3414	-5.065000	205.471
-17.3414	-5.065000	10.7196
-8.341423	-5.065000	321.865
0.658577	-5.065000	70.7651
9.658577	-5.065000	58.7262
18.6586	-5.065000	86.8142
-37.3414	-4.065000	188.764
-28.3414	-4.065000	134.426
-19.3414	-4.065000	91.3949
-10.3414	-4.065000	229.809
-1.341423	-4.065000	29.0894
7.658577	-4.065000	184.012
16.6586	-4.065000	129.418
-39.3414	-3.065000	0.000000
-30.3414	-3.065000	345.138
-21.3414	-3.065000	237.416
-12.3414	-3.065000	188.467
-3.341423	-3.065000	39.4167
5.658577	-3.065000	81.7494
14.6586	-3.065000	312.185
23.6586	-3.065000	49.2951
-32.3414	-2.065000	11.5529
-23.3414	-2.065000	339.295
-14.3414	-2.065000	387.74
-5.341423	-2.065000	222.857
3.658577	-2.065000	75.4829
12.6586	-2.065000	251.892
21.6586	-2.065000	8.162845
-34.3414	-1.065000	27.149
-25.3414	-1.065000	273.075
-16.3414	-1.065000	88.0082
-7.341423	-1.065000	113.324
1.658577	-1.065000	326.227
10.6586	-1.065000	132.069
19.6586	-1.065000	168.864
-36.3414	-0.065000	8.657269
-27.3414	-0.065000	10.1224
-18.3414	-0.065000	163.721
-9.341423	-0.065000	127.257
-0.341423	-0.065000	329.082
8.658577	-0.065000	179.064
17.6586	-0.065000	193.415
-38.3414	0.935000	2.986647
-29.3414	0.935000	6.180065
-20.3414	0.935000	99.9087
-11.3414	0.935000	334.689
-2.341423	0.935000	325.74
6.658577	0.935000	321.254
15.6586	0.935000	228.078
24.6586	0.935000	81.6099
-31.3414	1.935000	162.47
-22.3414	1.935000	292.395
-13.3414	1.935000	522.333
-4.341423	1.935000	333.145
4.658577	1.935000	107.96
13.6586	1.935000	311.964
22.6586	1.935000	259.058
-33.3414	2.935000	66.185
-24.3414	2.935000	100.522
-15.3414	2.935000	5.530935
-6.341423	2.935000	230.223
2.658577	2.935000	162.659
11.6586	2.935000	247.829
20.6586	2.935000	67.6879
-35.3414	3.935000	171.792
-26.3414	3.935000	266.638
-17.3414	3.935000	216.331
-8.341423	3.935000	103.473
0.658577	3.935000	364.102
9.658577	3.935000	361.297
18.6586	3.935000	359.245
-37.3414	4.935000	418.776
-28.3414	4.935000	125.169
-19.3414	4.935000	325.116
-10.3414	4.935000	203.2
-1.341423	4.935000	280.934
7.658577	4.935000	277.345
16.6586	4.935000	280.218
-39.3414	5.935000	524.951
-30.3414	5.935000	26.0382
-21.3414	5.935000	38.6028
-12.3414	5.935000	58.5222
-3.341423	5.935000	236.129
5.658577	5.935000	103.959
14.6586	5.935000	316.915
23.6586	5.935000	221.867
-32.3414	6.935000	337.709
-23.3414	6.935000	114.791
-14.3414	6.935000	322.548
-5.341423	6.935000	76.6753
3.658577	6.935000	39.2259
12.6586	6.935000	373.702
21.6586	6.935000	369.885
-34.3414	7.935000	396.03
-25.3414	7.935000	169.694
-16.3414	7.935000	288.482
-7.341423	7.935000	82.6877
1.658577	7.935000	245.048
10.6586	7.935000	299.181
19.6586	7.935000	14.4188
-36.3414	8.935000	380.458
-27.3414	8.935000	168.266
-18.3414	8.935000	214.492
-9.341423	8.935000	80.8811
-0.341423	8.935000	392.885
8.658577	8.935000	59.5574
17.6586	8.935000	208.499
-38.3414	9.935000	340.045
-29.3414	9.935000	354.613
-20.3414	9.935000	167.272
-11.3414	9.935000	102.549
-2.341423	9.935000	213.402
6.658577	9.935000	35.8164
15.6586	9.935000	3.752163
24.6586	9.935000	11.7701
-31.3414	10.935	474.386
-22.3414	10.935	162.138
-13.3414	10.935	248.782
-4.341423	10.935	298.246
4.658577	10.935	45.8286
13.6586	10.935	12.4449
22.6586	10.935	119.326
-33.3414	11.935	251.139
-24.3414	11.935	9.694776
-15.3414	11.935	418.078
-6.341423	11.935	110.944
2.658577	11.935	141.424
11.6586	11.935	236.939
20.6586	11.935	34.2976
-35.3414	12.935	378.599
-26.3414	12.935	28.9405
-17.3414	12.935	125.005
-8.341423	12.935	64.8673
0.658577	12.935	214.353
9.658577	12.935	278.641
18.6586	12.935	0.000000
-37.3414	13.935	435.297
-28.3414	13.935	149.069
-19.3414	13.935	228.194
-10.3414	13.935	34.8332
-1.341423	13.935	110.388
7.658577	13.935	238.081
16.6586	13.935	0.000000
-39.3414	14.935	464.199
-30.3414	14.935	313.219
-21.3414	14.935	329.083
-12.3414	14.935	206.656
-3.341423	14.935	102.342
5.658577	14.935	31.7223
14.6586	14.935	0.000000
23.6586	14.935	173.11
-32.3414	15.935	401.658
-23.3414	15.935	8.353863
-14.3414	15.935	347.158
-5.341423	15.935	25.7615
3.658577	15.935	71.2192
12.6586	15.935	100.561
21.6586	15.935	0.000000
24.6586	15.935	4.241882

File: DDp pos.txt
#XList		#YList		#IList
-39.3414	-21.065	2941.71
-30.3414	-21.065	2933.01
-21.3414	-21.065	2936.62
-12.3414	-21.065	2929.79
-3.341423	-21.065	2920.13
5.658577	-21.065	2936.34
14.6586	-21.065	2933.31
23.6586	-21.065	2900
-32.3414	-20.065	2930.9
-23.3414	-20.065	2928.04
-14.3414	-20.065	2929.95
-5.341423	-20.065	2938.74
3.658577	-20.065	2934.3
12.6586	-20.065	2936.31
21.6586	-20.065	2933.9
-34.3414	-19.065	2944.35
-25.3414	-19.065	2934.41
-16.3414	-19.065	2929.18
-7.341423	-19.065	2932.34
1.658577	-19.065	2937.4
10.6586	-19.065	2940.87
19.6586	-19.065	2935.76
-36.3414	-18.065	2932.58
-27.3414	-18.065	2935.07
-18.3414	-18.065	2932.78
-9.341423	-18.065	2932.77
-0.341423	-18.065	2937.13
8.658577	-18.065	2935.4
17.6586	-18.065	2935.06
-38.3414	-17.065	2934.61
-29.3414	-17.065	2935.68
-20.3414	-17.065	2932.67
-11.3414	-17.065	2933.01
-2.341423	-17.065	2933.7
6.658577	-17.065	2931.28
15.6586	-17.065	2932.11
24.6586	-17.065	2930.91
-31.3414	-16.065	2933.39
-22.3414	-16.065	2931.77
-13.3414	-16.065	2933.52
-4.341423	-16.065	2933.79
4.658577	-16.065	2938.39
13.6586	-16.065	2933.82
22.6586	-16.065	2934.57
-33.3414	-15.065	2935.07
-24.3414	-15.065	2933.52
-15.3414	-15.065	2929.37
-6.341423	-15.065	2935.38
2.658577	-15.065	2938.44
11.6586	-15.065	2931.94
20.6586	-15.065	2933.81
-35.3414	-14.065	2933.09
-26.3414	-14.065	2935.98
-17.3414	-14.065	2934.88
-8.341423	-14.065	2939.29
0.658577	-14.065	2934.58
9.658577	-14.065	2932.48
18.6586	-14.065	2933.12
-37.3414	-13.065	2930.8
-28.3414	-13.065	2933.84
-19.3414	-13.065	2936.24
-10.3414	-13.065	2940.15
-1.341423	-13.065	2934.72
7.658577	-13.065	2930
16.6586	-13.065	2936.13
-39.3414	-12.065	2928.93
-30.3414	-12.065	2931.45
-21.3414	-12.065	2930.01
-12.3414	-12.065	2935.25
-3.341423	-12.065	2932.53
5.658577	-12.065	2939.96
14.6586	-12.065	2938.64
23.6586	-12.065	2935.11
-32.3414	-11.065	2931.58
-23.3414	-11.065	2933.14
-14.3414	-11.065	2933.1
-5.341423	-11.065	2939.1
3.658577	-11.065	2943.82
12.6586	-11.065	2946.81
21.6586	-11.065	2938.29
-34.3414	-10.065	2931.44
-25.3414	-10.065	2930.69
-16.3414	-10.065	2930.82
-7.341423	-10.065	2934.06
1.658577	-10.065	2936.1
10.6586	-10.065	3000
19.6586	-10.065	2939.15
-36.3414	-9.065000	2933.38
-27.3414	-9.065000	2930.96
-18.3414	-9.065000	2933.64
-9.341423	-9.065000	2933.32
-0.341423	-9.065000	2934.37
8.658577	-9.065000	2948
17.6586	-9.065000	2936.25
-38.3414	-8.065000	2932.83
-29.3414	-8.065000	2929.85
-20.3414	-8.065000	2938.22
-11.3414	-8.065000	2930.37
-2.341423	-8.065000	2935.11
6.658577	-8.065000	2934.95
15.6586	-8.065000	2936.48
24.6586	-8.065000	2936.6
-31.3414	-7.065000	2933.2
-22.3414	-7.065000	2932.47
-13.3414	-7.065000	2934.49
-4.341423	-7.065000	2916.58
4.658577	-7.065000	2934.72
13.6586	-7.065000	2932.21
22.6586	-7.065000	2932.97
-33.3414	-6.065000	2931.93
-24.3414	-6.065000	2935.6
-15.3414	-6.065000	2932.14
-6.341423	-6.065000	2931.99
2.658577	-6.065000	2932.18
11.6586	-6.065000	2932.99
20.6586	-6.065000	2942.54
-35.3414	-5.065000	2932.02
-26.3414	-5.065000	2932.7
-17.3414	-5.065000	2917.41
-8.341423	-5.065000	2930.8
0.658577	-5.065000	2935.73
9.658577	-5.065000	2931.08
18.6586	-5.065000	2933.25
-37.3414	-4.065000	2934.86
-28.3414	-4.065000	2929.11
-19.3414	-4.065000	2937.91
-10.3414	-4.065000	2934
-1.341423	-4.065000	2934.53
7.658577	-4.065000	2931.44
16.6586	-4.065000	2933.73
-39.3414	-3.065000	2955.02
-30.3414	-3.065000	2934.82
-21.3414	-3.065000	2931.06
-12.3414	-3.065000	2932.34
-3.341423	-3.065000	2927.79
5.658577	-3.065000	2933.47
14.6586	-3.065000	2930
23.6586	-3.065000	2940.82
-32.3414	-2.065000	2918.79
-23.3414	-2.065000	2935.87
-14.3414	-2.065000	2933.36
-5.341423	-2.065000	2934.26
3.658577	-2.065000	2930.11
12.6586	-2.065000	2928.57
21.6586	-2.065000	2942.65
-34.3414	-1.065000	2949.08
-25.3414	-1.065000	2931.67
-16.3414	-1.065000	2941.01
-7.341423	-1.065000	2934.67
1.658577	-1.065000	2928.9
10.6586	-1.065000	2932.93
19.6586	-1.065000	2932.93
-36.3414	-0.065000	2926.08
-27.3414	-0.065000	2912.89
-18.3414	-0.065000	2936.52
-9.341423	-0.065000	2937.71
-0.341423	-0.065000	2935.09
8.658577	-0.065000	2932.21
17.6586	-0.065000	2933.8
-38.3414	0.935000	2940.24
-29.3414	0.935000	2940.9
-20.3414	0.935000	2936.41
-11.3414	0.935000	2936.82
-2.341423	0.935000	2931.93
6.658577	0.935000	2935.08
15.6586	0.935000	2932.38
24.6586	0.935000	2936.17
-31.3414	1.935000	2936.4
-22.3414	1.935000	2935.69
-13.3414	1.935000	2933.36
-4.341423	1.935000	2935.15
4.658577	1.935000	2937.18
13.6586	1.935000	2934.95
22.6586	1.935000	2930.51
-33.3414	2.935000	2937.54
-24.3414	2.935000	2931.25
-15.3414	2.935000	2932.58
-6.341423	2.935000	2931.87
2.658577	2.935000	2939.97
11.6586	2.935000	2931.66
20.6586	2.935000	2931.07
-35.3414	3.935000	2933.81
-26.3414	3.935000	2929.95
-17.3414	3.935000	2930.02
-8.341423	3.935000	2939.22
0.658577	3.935000	2932.49
9.658577	3.935000	2931.94
18.6586	3.935000	2933.47
-37.3414	4.935000	2938.6
-28.3414	4.935000	2934.3
-19.3414	4.935000	2930.71
-10.3414	4.935000	2936.58
-1.341423	4.935000	2931.85
7.658577	4.935000	2931.98
16.6586	4.935000	2933.33
-39.3414	5.935000	2935.24
-30.3414	5.935000	2932.94
-21.3414	5.935000	2928.16
-12.3414	5.935000	2931.02
-3.341423	5.935000	2931.12
5.658577	5.935000	2934.75
14.6586	5.935000	2931.14
23.6586	5.935000	2931.03
-32.3414	6.935000	2932.17
-23.3414	6.935000	2933.64
-14.3414	6.935000	2931.99
-5.341423	6.935000	2930.34
3.658577	6.935000	2937.37
12.6586	6.935000	2932.43
21.6586	6.935000	2929.89
-34.3414	7.935000	2931.01
-25.3414	7.935000	2934.65
-16.3414	7.935000	2932.07
-7.341423	7.935000	2939.31
1.658577	7.935000	2932.84
10.6586	7.935000	2936.03
19.6586	7.935000	2929.05
-36.3414	8.935000	2930.69
-27.3414	8.935000	2936.52
-18.3414	8.935000	2932.63
-9.341423	8.935000	2937.55
-0.341423	8.935000	2934.31
8.658577	8.935000	2934.72
17.6586	8.935000	2930.96
-38.3414	9.935000	2926.9
-29.3414	9.935000	2929.13
-20.3414	9.935000	2936.67
-11.3414	9.935000	2934.59
-2.341423	9.935000	2936.54
6.658577	9.935000	2931.58
15.6586	9.935000	2900
24.6586	9.935000	2926.84
-31.3414	10.935	2931.6
-22.3414	10.935	2932.68
-13.3414	10.935	2934.64
-4.341423	10.935	2931.33
4.658577	10.935	2937.35
13.6586	10.935	2928.09
22.6586	10.935	2930.24
-33.3414	11.935	2930.27
-24.3414	11.935	2934.46
-15.3414	11.935	2934.45
-6.341423	11.935	2937.16
2.658577	11.935	2934.54
11.6586	11.935	2934.87
20.6586	11.935	2933.76
-35.3414	12.935	2932.54
-26.3414	12.935	2935.34
-17.3414	12.935	2936.73
-8.341423	12.935	2938.99
0.658577	12.935	2936.74
9.658577	12.935	2933.22
18.6586	12.935	2919.61
-37.3414	13.935	2931.81
-28.3414	13.935	2936.9
-19.3414	13.935	2929.84
-10.3414	13.935	2931.1
-1.341423	13.935	2932.39
7.658577	13.935	2930.75
16.6586	13.935	2900
-39.3414	14.935	2934.8
-30.3414	14.935	2931.01
-21.3414	14.935	2933.47
-12.3414	14.935	2932.38
-3.341423	14.935	2930.82
5.658577	14.935	2938.68
14.6586	14.935	2924.71
23.6586	14.935	2900
-32.3414	15.935	2932.63
-23.3414	15.935	2915.28
-14.3414	15.935	2935.65
-5.341423	15.935	2942.63
3.658577	15.935	2934.57
12.6586	15.935	2932.03
21.6586	15.935	2923.17
24.6586	15.935	2908.52