Folder: graphene-production/data/derived_data/raman/20170920_Gr-NH2_for_Radisurf/20170920 Gr-NH for Radisurf map 2 (part 6)

File: G FWHM.txt
#XList		#YList		#IList
-39.3414	-21.065	49.0466
-30.3414	-21.065	61.4001
-21.3414	-21.065	65.2321
-12.3414	-21.065	77.0946
-3.341423	-21.065	79.7675
5.658577	-21.065	24.3453
14.6586	-21.065	62.1573
23.6586	-21.065	2.227608
-32.3414	-20.065	61.5755
-23.3414	-20.065	52.9116
-14.3414	-20.065	79.4097
-5.341423	-20.065	44.0208
3.658577	-20.065	34.9338
12.6586	-20.065	57.6765
21.6586	-20.065	62.9166
-34.3414	-19.065	67.5337
-25.3414	-19.065	60.8926
-16.3414	-19.065	74.5501
-7.341423	-19.065	57.3716
1.658577	-19.065	37.5499
10.6586	-19.065	23.7525
19.6586	-19.065	63.6043
-36.3414	-18.065	52.4537
-27.3414	-18.065	61.7094
-18.3414	-18.065	63.8133
-9.341423	-18.065	58.5264
-0.341423	-18.065	52.2742
8.658577	-18.065	73.1144
17.6586	-18.065	56.8448
-38.3414	-17.065	65.9388
-29.3414	-17.065	76.8606
-20.3414	-17.065	66.9253
-11.3414	-17.065	64.7696
-2.341423	-17.065	59.8221
6.658577	-17.065	59.4078
15.6586	-17.065	64.5259
24.6586	-17.065	64.6973
-31.3414	-16.065	82.2896
-22.3414	-16.065	58.911
-13.3414	-16.065	72.9671
-4.341423	-16.065	56.4454
4.658577	-16.065	32.6409
13.6586	-16.065	71.731
22.6586	-16.065	65.3925
-33.3414	-15.065	76.5023
-24.3414	-15.065	75.2553
-15.3414	-15.065	76.3514
-6.341423	-15.065	57.9411
2.658577	-15.065	54.1224
11.6586	-15.065	68.7455
20.6586	-15.065	64.0292
-35.3414	-14.065	76.0402
-26.3414	-14.065	65.1156
-17.3414	-14.065	67.2462
-8.341423	-14.065	48.8956
0.658577	-14.065	55.8438
9.658577	-14.065	76.2382
18.6586	-14.065	59.3337
-37.3414	-13.065	77.5725
-28.3414	-13.065	77.0215
-19.3414	-13.065	45.3045
-10.3414	-13.065	55.3983
-1.341423	-13.065	60.0527
7.658577	-13.065	71.3482
16.6586	-13.065	67.558
-39.3414	-12.065	77.4307
-30.3414	-12.065	78.2658
-21.3414	-12.065	38.9765
-12.3414	-12.065	54.7999
-3.341423	-12.065	61.8523
5.658577	-12.065	41.8321
14.6586	-12.065	60.4325
23.6586	-12.065	56.0064
-32.3414	-11.065	79.3898
-23.3414	-11.065	63.95
-14.3414	-11.065	67.7909
-5.341423	-11.065	49.3616
3.658577	-11.065	24.6227
12.6586	-11.065	73.3481
21.6586	-11.065	19.212
-34.3414	-10.065	79.3929
-25.3414	-10.065	68.1418
-16.3414	-10.065	56.0502
-7.341423	-10.065	42.0857
1.658577	-10.065	60.36
10.6586	-10.065	6.311968
19.6586	-10.065	28.4188
-36.3414	-9.065000	78.7425
-27.3414	-9.065000	73.5799
-18.3414	-9.065000	49.3956
-9.341423	-9.065000	73.765
-0.341423	-9.065000	61.2993
8.658577	-9.065000	68.9327
17.6586	-9.065000	44.9375
-38.3414	-8.065000	80.2893
-29.3414	-8.065000	78.5168
-20.3414	-8.065000	14.7677
-11.3414	-8.065000	77.6902
-2.341423	-8.065000	46.6709
6.658577	-8.065000	73.9696
15.6586	-8.065000	63.8452
24.6586	-8.065000	66.6569
-31.3414	-7.065000	72.4693
-22.3414	-7.065000	51.5854
-13.3414	-7.065000	82.6506
-4.341423	-7.065000	47.1658
4.658577	-7.065000	62.7817
13.6586	-7.065000	68.4002
22.6586	-7.065000	41.63
-33.3414	-6.065000	79.5771
-24.3414	-6.065000	67.5909
-15.3414	-6.065000	72.4944
-6.341423	-6.065000	77.1709
2.658577	-6.065000	69.4269
11.6586	-6.065000	62.449
20.6586	-6.065000	22.303
-35.3414	-5.065000	76.422
-26.3414	-5.065000	65.4041
-17.3414	-5.065000	78.7018
-8.341423	-5.065000	73.8164
0.658577	-5.065000	59.878
9.658577	-5.065000	61.7707
18.6586	-5.065000	35.2765
-37.3414	-4.065000	58.7213
-28.3414	-4.065000	70.2493
-19.3414	-4.065000	68.9042
-10.3414	-4.065000	68.7159
-1.341423	-4.065000	78.418
7.658577	-4.065000	68.2447
16.6586	-4.065000	68.3198
-39.3414	-3.065000	225.576
-30.3414	-3.065000	67.9553
-21.3414	-3.065000	66.6179
-12.3414	-3.065000	69.8345
-3.341423	-3.065000	61.9649
5.658577	-3.065000	36.2453
14.6586	-3.065000	68.3752
23.6586	-3.065000	33.123
-32.3414	-2.065000	64.21
-23.3414	-2.065000	70.6134
-14.3414	-2.065000	72.9894
-5.341423	-2.065000	59.1076
3.658577	-2.065000	68.4557
12.6586	-2.065000	62.0875
21.6586	-2.065000	89.9833
-34.3414	-1.065000	37.4128
-25.3414	-1.065000	72.1907
-16.3414	-1.065000	36.3925
-7.341423	-1.065000	51.8624
1.658577	-1.065000	69.3759
10.6586	-1.065000	56.9084
19.6586	-1.065000	54.7135
-36.3414	-0.065000	18.4092
-27.3414	-0.065000	569.66
-18.3414	-0.065000	62.2126
-9.341423	-0.065000	59.0732
-0.341423	-0.065000	74.0553
8.658577	-0.065000	72.4348
17.6586	-0.065000	60.631
-38.3414	0.935000	16.1697
-29.3414	0.935000	54.4856
-20.3414	0.935000	73.0896
-11.3414	0.935000	74.0893
-2.341423	0.935000	63.5035
6.658577	0.935000	64.9364
15.6586	0.935000	68.3613
24.6586	0.935000	45.0599
-31.3414	1.935000	59.4908
-22.3414	1.935000	78.3081
-13.3414	1.935000	73.0239
-4.341423	1.935000	71.5997
4.658577	1.935000	51.143
13.6586	1.935000	64.579
22.6586	1.935000	70.2268
-33.3414	2.935000	51.9224
-24.3414	2.935000	54.0535
-15.3414	2.935000	56.973
-6.341423	2.935000	66.189
2.658577	2.935000	51.4878
11.6586	2.935000	64.8311
20.6586	2.935000	74.5185
-35.3414	3.935000	56.7979
-26.3414	3.935000	62.9813
-17.3414	3.935000	76.0617
-8.341423	3.935000	38.4487
0.658577	3.935000	75.0851
9.658577	3.935000	68.9685
18.6586	3.935000	72.6076
-37.3414	4.935000	69.2386
-28.3414	4.935000	61.1182
-19.3414	4.935000	78.0495
-10.3414	4.935000	53.6763
-1.341423	4.935000	83.78
7.658577	4.935000	61.5253
16.6586	4.935000	63.0093
-39.3414	5.935000	72.8668
-30.3414	5.935000	72.51
-21.3414	5.935000	58.1492
-12.3414	5.935000	81.0184
-3.341423	5.935000	71.2678
5.658577	5.935000	60.6619
14.6586	5.935000	63.0599
23.6586	5.935000	76.8558
-32.3414	6.935000	74.0691
-23.3414	6.935000	57.8073
-14.3414	6.935000	71.5181
-5.341423	6.935000	63.4029
3.658577	6.935000	68.6384
12.6586	6.935000	66.3517
21.6586	6.935000	69.3561
-34.3414	7.935000	77.8563
-25.3414	7.935000	55.795
-16.3414	7.935000	67.9635
-7.341423	7.935000	44.5497
1.658577	7.935000	65.1669
10.6586	7.935000	64.1941
19.6586	7.935000	73.5257
-36.3414	8.935000	80.0992
-27.3414	8.935000	56.3911
-18.3414	8.935000	65.468
-9.341423	8.935000	45.9477
-0.341423	8.935000	72.8739
8.658577	8.935000	28.5354
17.6586	8.935000	67.798
-38.3414	9.935000	80.092
-29.3414	9.935000	70.204
-20.3414	9.935000	59.337
-11.3414	9.935000	57.6901
-2.341423	9.935000	64.0927
6.658577	9.935000	22.4314
15.6586	9.935000	98.0026
24.6586	9.935000	119.385
-31.3414	10.935	73.5303
-22.3414	10.935	63.8003
-13.3414	10.935	67.6347
-4.341423	10.935	72.7849
4.658577	10.935	23.9714
13.6586	10.935	64.3222
22.6586	10.935	74.0987
-33.3414	11.935	74.8447
-24.3414	11.935	76.0959
-15.3414	11.935	70.1337
-6.341423	11.935	58.1776
2.658577	11.935	57.5757
11.6586	11.935	60.0206
20.6586	11.935	67.7916
-35.3414	12.935	81.0084
-26.3414	12.935	59.2302
-17.3414	12.935	58.0133
-8.341423	12.935	31.5899
0.658577	12.935	63.5729
9.658577	12.935	69.1345
18.6586	12.935	24.1446
-37.3414	13.935	73.8248
-28.3414	13.935	59.2619
-19.3414	13.935	74.7996
-10.3414	13.935	68.8562
-1.341423	13.935	52.5774
7.658577	13.935	71.959
16.6586	13.935	102.788
-39.3414	14.935	78.1179
-30.3414	14.935	73.2501
-21.3414	14.935	69.0323
-12.3414	14.935	72.6955
-3.341423	14.935	64.1973
5.658577	14.935	71.3357
14.6586	14.935	25.6221
23.6586	14.935	135.7
-32.3414	15.935	76.8287
-23.3414	15.935	72.0626
-14.3414	15.935	75.2684
-5.341423	15.935	25.7887
3.658577	15.935	67.7234
12.6586	15.935	65.6107
21.6586	15.935	570.749
24.6586	15.935	0.827329

File: G int.txt
#XList		#YList		#IList
-39.3414	-21.065	246.077
-30.3414	-21.065	863.819
-21.3414	-21.065	222.282
-12.3414	-21.065	619.375
-3.341423	-21.065	63.4104
5.658577	-21.065	400.482
14.6586	-21.065	613.526
23.6586	-21.065	13.0095
-32.3414	-20.065	901.574
-23.3414	-20.065	208.384
-14.3414	-20.065	653.602
-5.341423	-20.065	581.452
3.658577	-20.065	292.092
12.6586	-20.065	576
21.6586	-20.065	329.317
-34.3414	-19.065	48.4805
-25.3414	-19.065	595.21
-16.3414	-19.065	854.549
-7.341423	-19.065	679.034
1.658577	-19.065	230.396
10.6586	-19.065	418.741
19.6586	-19.065	648.969
-36.3414	-18.065	338.792
-27.3414	-18.065	587.84
-18.3414	-18.065	399.254
-9.341423	-18.065	661.669
-0.341423	-18.065	356.977
8.658577	-18.065	661.798
17.6586	-18.065	537.915
-38.3414	-17.065	646.288
-29.3414	-17.065	311.808
-20.3414	-17.065	152.936
-11.3414	-17.065	626.207
-2.341423	-17.065	334.759
6.658577	-17.065	491.574
15.6586	-17.065	701.318
24.6586	-17.065	517.201
-31.3414	-16.065	365.575
-22.3414	-16.065	655.305
-13.3414	-16.065	852.604
-4.341423	-16.065	547.573
4.658577	-16.065	302.814
13.6586	-16.065	99.7499
22.6586	-16.065	342.319
-33.3414	-15.065	835.045
-24.3414	-15.065	334.267
-15.3414	-15.065	683.343
-6.341423	-15.065	393.171
2.658577	-15.065	263.075
11.6586	-15.065	580.405
20.6586	-15.065	134.814
-35.3414	-14.065	702.314
-26.3414	-14.065	569.185
-17.3414	-14.065	271.584
-8.341423	-14.065	227.612
0.658577	-14.065	508.946
9.658577	-14.065	496.857
18.6586	-14.065	160.39
-37.3414	-13.065	785.752
-28.3414	-13.065	333.776
-19.3414	-13.065	340.207
-10.3414	-13.065	367.977
-1.341423	-13.065	329.296
7.658577	-13.065	574.205
16.6586	-13.065	149.192
-39.3414	-12.065	581.382
-30.3414	-12.065	609.125
-21.3414	-12.065	280.631
-12.3414	-12.065	512.9
-3.341423	-12.065	405.932
5.658577	-12.065	324.159
14.6586	-12.065	400.002
23.6586	-12.065	585.513
-32.3414	-11.065	572.602
-23.3414	-11.065	609.831
-14.3414	-11.065	173.956
-5.341423	-11.065	231.877
3.658577	-11.065	201.614
12.6586	-11.065	44.811
21.6586	-11.065	396.748
-34.3414	-10.065	631.557
-25.3414	-10.065	498.767
-16.3414	-10.065	390.584
-7.341423	-10.065	139.071
1.658577	-10.065	481.293
10.6586	-10.065	3.890246
19.6586	-10.065	467.611
-36.3414	-9.065000	694.656
-27.3414	-9.065000	734.462
-18.3414	-9.065000	216.566
-9.341423	-9.065000	211.052
-0.341423	-9.065000	401.468
8.658577	-9.065000	31.2181
17.6586	-9.065000	563.517
-38.3414	-8.065000	493.409
-29.3414	-8.065000	585.827
-20.3414	-8.065000	456.473
-11.3414	-8.065000	438.477
-2.341423	-8.065000	105.896
6.658577	-8.065000	414.877
15.6586	-8.065000	317.039
24.6586	-8.065000	49.8392
-31.3414	-7.065000	679.119
-22.3414	-7.065000	114.051
-13.3414	-7.065000	325.692
-4.341423	-7.065000	33.4501
4.658577	-7.065000	483.157
13.6586	-7.065000	381.71
22.6586	-7.065000	502.741
-33.3414	-6.065000	790.3
-24.3414	-6.065000	797.263
-15.3414	-6.065000	623.43
-6.341423	-6.065000	283.799
2.658577	-6.065000	202.844
11.6586	-6.065000	446.132
20.6586	-6.065000	542.848
-35.3414	-5.065000	521.138
-26.3414	-5.065000	642.249
-17.3414	-5.065000	34.8879
-8.341423	-5.065000	519.955
0.658577	-5.065000	270.791
9.658577	-5.065000	163.741
18.6586	-5.065000	554.983
-37.3414	-4.065000	750.206
-28.3414	-4.065000	272.827
-19.3414	-4.065000	214.042
-10.3414	-4.065000	618.157
-1.341423	-4.065000	62.1203
7.658577	-4.065000	477.033
16.6586	-4.065000	340.08
-39.3414	-3.065000	3.178869
-30.3414	-3.065000	827.137
-21.3414	-3.065000	763.557
-12.3414	-3.065000	560.626
-3.341423	-3.065000	112.474
5.658577	-3.065000	473.42
14.6586	-3.065000	768.21
23.6586	-3.065000	371.144
-32.3414	-2.065000	32.6276
-23.3414	-2.065000	1020.05
-14.3414	-2.065000	607.825
-5.341423	-2.065000	641.742
3.658577	-2.065000	200.795
12.6586	-2.065000	770.572
21.6586	-2.065000	38.7434
-34.3414	-1.065000	122.712
-25.3414	-1.065000	555.925
-16.3414	-1.065000	515.292
-7.341423	-1.065000	370.536
1.658577	-1.065000	837.095
10.6586	-1.065000	550.611
19.6586	-1.065000	717.378
-36.3414	-0.065000	137.636
-27.3414	-0.065000	2.239707
-18.3414	-0.065000	538.773
-9.341423	-0.065000	367.385
-0.341423	-0.065000	663.097
8.658577	-0.065000	344.214
17.6586	-0.065000	542.073
-38.3414	0.935000	119.729
-29.3414	0.935000	25.8053
-20.3414	0.935000	202.437
-11.3414	0.935000	517.896
-2.341423	0.935000	848.026
6.658577	0.935000	919.608
15.6586	0.935000	408.817
24.6586	0.935000	350.186
-31.3414	1.935000	581.114
-22.3414	1.935000	524.241
-13.3414	1.935000	835.244
-4.341423	1.935000	674.462
4.658577	1.935000	354.812
13.6586	1.935000	806.491
22.6586	1.935000	624.101
-33.3414	2.935000	239.815
-24.3414	2.935000	335.642
-15.3414	2.935000	12.6492
-6.341423	2.935000	648.534
2.658577	2.935000	540.94
11.6586	2.935000	845.121
20.6586	2.935000	187.452
-35.3414	3.935000	585.733
-26.3414	3.935000	803.696
-17.3414	3.935000	381.238
-8.341423	3.935000	517.553
0.658577	3.935000	749.749
9.658577	3.935000	702.859
18.6586	3.935000	671.816
-37.3414	4.935000	821.571
-28.3414	4.935000	295.662
-19.3414	4.935000	548.22
-10.3414	4.935000	738.974
-1.341423	4.935000	632.569
7.658577	4.935000	772.917
16.6586	4.935000	760.18
-39.3414	5.935000	814.641
-30.3414	5.935000	89.0137
-21.3414	5.935000	134.601
-12.3414	5.935000	118.983
-3.341423	5.935000	540.131
5.658577	5.935000	324.57
14.6586	5.935000	855.508
23.6586	5.935000	329.966
-32.3414	6.935000	560.843
-23.3414	6.935000	373.453
-14.3414	6.935000	498.393
-5.341423	6.935000	226.647
3.658577	6.935000	130.635
12.6586	6.935000	802.769
21.6586	6.935000	828.606
-34.3414	7.935000	621.455
-25.3414	7.935000	624.695
-16.3414	7.935000	630.387
-7.341423	7.935000	383.461
1.658577	7.935000	735.689
10.6586	7.935000	769.226
19.6586	7.935000	41.1773
-36.3414	8.935000	702.009
-27.3414	8.935000	606.684
-18.3414	8.935000	561.615
-9.341423	8.935000	337.263
-0.341423	8.935000	697.543
8.658577	8.935000	426.243
17.6586	8.935000	587.805
-38.3414	9.935000	645.86
-29.3414	9.935000	1024.5
-20.3414	9.935000	550.931
-11.3414	9.935000	337.542
-2.341423	9.935000	578.638
6.658577	9.935000	325.672
15.6586	9.935000	8.803123
24.6586	9.935000	16.0371
-31.3414	10.935	803.56
-22.3414	10.935	567.395
-13.3414	10.935	623.619
-4.341423	10.935	602.469
4.658577	10.935	400.984
13.6586	10.935	42.3085
22.6586	10.935	267.076
-33.3414	11.935	673.916
-24.3414	11.935	31.5922
-15.3414	11.935	1049.02
-6.341423	11.935	410.829
2.658577	11.935	419.58
11.6586	11.935	629.272
20.6586	11.935	137.175
-35.3414	12.935	573.601
-26.3414	12.935	138.112
-17.3414	12.935	540.601
-8.341423	12.935	488.994
0.658577	12.935	610.962
9.658577	12.935	764.433
18.6586	12.935	6.686042
-37.3414	13.935	648.453
-28.3414	13.935	602.361
-19.3414	13.935	327.44
-10.3414	13.935	84.284
-1.341423	13.935	500.631
7.658577	13.935	545.251
16.6586	13.935	0.000000
-39.3414	14.935	866.019
-30.3414	14.935	488.64
-21.3414	14.935	645.651
-12.3414	14.935	424.77
-3.341423	14.935	283.683
5.658577	14.935	95.7075
14.6586	14.935	3.074924
23.6586	14.935	0.000000
-32.3414	15.935	645.784
-23.3414	15.935	32.8128
-14.3414	15.935	735.537
-5.341423	15.935	237.049
3.658577	15.935	227.969
12.6586	15.935	265.499
21.6586	15.935	0.273735
24.6586	15.935	51.5666

File: G pos.txt
#XList		#YList		#IList
-39.3414	-21.065	1583.57
-30.3414	-21.065	1580.94
-21.3414	-21.065	1580.97
-12.3414	-21.065	1570
-3.341423	-21.065	1585.61
5.658577	-21.065	1581.4
14.6586	-21.065	1584.34
23.6586	-21.065	1570
-32.3414	-20.065	1581.98
-23.3414	-20.065	1584.97
-14.3414	-20.065	1570
-5.341423	-20.065	1584.06
3.658577	-20.065	1582.53
12.6586	-20.065	1585.72
21.6586	-20.065	1581.4
-34.3414	-19.065	1583.63
-25.3414	-19.065	1583.54
-16.3414	-19.065	1570
-7.341423	-19.065	1585.6
1.658577	-19.065	1582.69
10.6586	-19.065	1582.91
19.6586	-19.065	1583.35
-36.3414	-18.065	1583.5
-27.3414	-18.065	1584.4
-18.3414	-18.065	1581.12
-9.341423	-18.065	1586.52
-0.341423	-18.065	1583.57
8.658577	-18.065	1570
17.6586	-18.065	1584.73
-38.3414	-17.065	1579.16
-29.3414	-17.065	1570
-20.3414	-17.065	1579.77
-11.3414	-17.065	1580.58
-2.341423	-17.065	1584.46
6.658577	-17.065	1581.94
15.6586	-17.065	1578.74
24.6586	-17.065	1575.47
-31.3414	-16.065	1570
-22.3414	-16.065	1585.22
-13.3414	-16.065	1570
-4.341423	-16.065	1583.2
4.658577	-16.065	1581.87
13.6586	-16.065	1579.99
22.6586	-16.065	1578.83
-33.3414	-15.065	1570
-24.3414	-15.065	1570.93
-15.3414	-15.065	1570
-6.341423	-15.065	1585.01
2.658577	-15.065	1582.49
11.6586	-15.065	1576.51
20.6586	-15.065	1583.01
-35.3414	-14.065	1570
-26.3414	-14.065	1578.8
-17.3414	-14.065	1578.9
-8.341423	-14.065	1584.67
0.658577	-14.065	1583.56
9.658577	-14.065	1570
18.6586	-14.065	1584.41
-37.3414	-13.065	1570
-28.3414	-13.065	1570
-19.3414	-13.065	1583.33
-10.3414	-13.065	1586.26
-1.341423	-13.065	1582.44
7.658577	-13.065	1570
16.6586	-13.065	1573.68
-39.3414	-12.065	1570
-30.3414	-12.065	1570
-21.3414	-12.065	1582.07
-12.3414	-12.065	1585.67
-3.341423	-12.065	1583.23
5.658577	-12.065	1583.22
14.6586	-12.065	1584.73
23.6586	-12.065	1583.87
-32.3414	-11.065	1570
-23.3414	-11.065	1582.23
-14.3414	-11.065	1579.21
-5.341423	-11.065	1582.17
3.658577	-11.065	1581.56
12.6586	-11.065	1584.5
21.6586	-11.065	1582.84
-34.3414	-10.065	1570
-25.3414	-10.065	1572.91
-16.3414	-10.065	1584.09
-7.341423	-10.065	1582.42
1.658577	-10.065	1582.9
10.6586	-10.065	1600
19.6586	-10.065	1584.17
-36.3414	-9.065000	1570
-27.3414	-9.065000	1570
-18.3414	-9.065000	1584.18
-9.341423	-9.065000	1570
-0.341423	-9.065000	1581.67
8.658577	-9.065000	1587.17
17.6586	-9.065000	1584.33
-38.3414	-8.065000	1570
-29.3414	-8.065000	1570
-20.3414	-8.065000	1581.25
-11.3414	-8.065000	1570
-2.341423	-8.065000	1582.49
6.658577	-8.065000	1570
15.6586	-8.065000	1581.64
24.6586	-8.065000	1584.52
-31.3414	-7.065000	1570
-22.3414	-7.065000	1584.39
-13.3414	-7.065000	1570
-4.341423	-7.065000	1580.37
4.658577	-7.065000	1585.06
13.6586	-7.065000	1574.92
22.6586	-7.065000	1583.77
-33.3414	-6.065000	1570
-24.3414	-6.065000	1573.26
-15.3414	-6.065000	1570
-6.341423	-6.065000	1570
2.658577	-6.065000	1578.71
11.6586	-6.065000	1581.51
20.6586	-6.065000	1582.71
-35.3414	-5.065000	1570
-26.3414	-5.065000	1579.63
-17.3414	-5.065000	1584.02
-8.341423	-5.065000	1570
0.658577	-5.065000	1584.63
9.658577	-5.065000	1580.61
18.6586	-5.065000	1582.54
-37.3414	-4.065000	1584.42
-28.3414	-4.065000	1570
-19.3414	-4.065000	1573.01
-10.3414	-4.065000	1586.05
-1.341423	-4.065000	1577.49
7.658577	-4.065000	1574.18
16.6586	-4.065000	1578.6
-39.3414	-3.065000	1595.39
-30.3414	-3.065000	1572.54
-21.3414	-3.065000	1581.7
-12.3414	-3.065000	1584.87
-3.341423	-3.065000	1581.58
5.658577	-3.065000	1581.56
14.6586	-3.065000	1572.67
23.6586	-3.065000	1584
-32.3414	-2.065000	1586.71
-23.3414	-2.065000	1587.51
-14.3414	-2.065000	1570
-5.341423	-2.065000	1581.84
3.658577	-2.065000	1574.42
12.6586	-2.065000	1581.8
21.6586	-2.065000	1583.27
-34.3414	-1.065000	1581.25
-25.3414	-1.065000	1571.21
-16.3414	-1.065000	1583.19
-7.341423	-1.065000	1583.47
1.658577	-1.065000	1575.01
10.6586	-1.065000	1584.84
19.6586	-1.065000	1584.02
-36.3414	-0.065000	1581.01
-27.3414	-0.065000	1600
-18.3414	-0.065000	1582.71
-9.341423	-0.065000	1582.04
-0.341423	-0.065000	1570
8.658577	-0.065000	1570
17.6586	-0.065000	1583.21
-38.3414	0.935000	1580.51
-29.3414	0.935000	1583.95
-20.3414	0.935000	1570
-11.3414	0.935000	1570
-2.341423	0.935000	1580.82
6.658577	0.935000	1579.83
15.6586	0.935000	1575.87
24.6586	0.935000	1584.04
-31.3414	1.935000	1585.63
-22.3414	1.935000	1570
-13.3414	1.935000	1570
-4.341423	1.935000	1570
4.658577	1.935000	1583.48
13.6586	1.935000	1577.35
22.6586	1.935000	1573.72
-33.3414	2.935000	1582.33
-24.3414	2.935000	1585.15
-15.3414	2.935000	1580.63
-6.341423	2.935000	1582.74
2.658577	2.935000	1583.89
11.6586	2.935000	1586.84
20.6586	2.935000	1578.34
-35.3414	3.935000	1582.79
-26.3414	3.935000	1580.56
-17.3414	3.935000	1570
-8.341423	3.935000	1582.18
0.658577	3.935000	1570
9.658577	3.935000	1570.64
18.6586	3.935000	1570
-37.3414	4.935000	1572.62
-28.3414	4.935000	1580.95
-19.3414	4.935000	1570
-10.3414	4.935000	1583.93
-1.341423	4.935000	1570
7.658577	4.935000	1582.08
16.6586	4.935000	1582.92
-39.3414	5.935000	1570
-30.3414	5.935000	1584.73
-21.3414	5.935000	1584.68
-12.3414	5.935000	1570
-3.341423	5.935000	1571.62
5.658577	5.935000	1583.22
14.6586	5.935000	1581.2
23.6586	5.935000	1570
-32.3414	6.935000	1570
-23.3414	6.935000	1583.99
-14.3414	6.935000	1570
-5.341423	6.935000	1580.94
3.658577	6.935000	1581.35
12.6586	6.935000	1575.8
21.6586	6.935000	1571.84
-34.3414	7.935000	1570
-25.3414	7.935000	1583.15
-16.3414	7.935000	1576.96
-7.341423	7.935000	1586.01
1.658577	7.935000	1579.95
10.6586	7.935000	1580.63
19.6586	7.935000	1577.86
-36.3414	8.935000	1570
-27.3414	8.935000	1584.52
-18.3414	8.935000	1581.83
-9.341423	8.935000	1586.5
-0.341423	8.935000	1570
8.658577	8.935000	1582.38
17.6586	8.935000	1576.1
-38.3414	9.935000	1570
-29.3414	9.935000	1587.89
-20.3414	9.935000	1583.34
-11.3414	9.935000	1585.16
-2.341423	9.935000	1580.78
6.658577	9.935000	1581.33
15.6586	9.935000	1595.88
24.6586	9.935000	1570
-31.3414	10.935	1570
-22.3414	10.935	1583.07
-13.3414	10.935	1577.74
-4.341423	10.935	1570
4.658577	10.935	1580.71
13.6586	10.935	1583.73
22.6586	10.935	1570
-33.3414	11.935	1583.61
-24.3414	11.935	1583.21
-15.3414	11.935	1588.48
-6.341423	11.935	1585.81
2.658577	11.935	1583.61
11.6586	11.935	1582.8
20.6586	11.935	1583.41
-35.3414	12.935	1570
-26.3414	12.935	1586.76
-17.3414	12.935	1585.98
-8.341423	12.935	1582.2
0.658577	12.935	1580.49
9.658577	12.935	1587.22
18.6586	12.935	1586.63
-37.3414	13.935	1570
-28.3414	13.935	1586.79
-19.3414	13.935	1570
-10.3414	13.935	1576.99
-1.341423	13.935	1584.15
7.658577	13.935	1570
16.6586	13.935	1600
-39.3414	14.935	1570
-30.3414	14.935	1570
-21.3414	14.935	1575.16
-12.3414	14.935	1570
-3.341423	14.935	1577.65
5.658577	14.935	1578.73
14.6586	14.935	1577.13
23.6586	14.935	1599.1
-32.3414	15.935	1570
-23.3414	15.935	1586.74
-14.3414	15.935	1570
-5.341423	15.935	1582.26
3.658577	15.935	1579.22
12.6586	15.935	1575.63
21.6586	15.935	1600
24.6586	15.935	1570.96