Folder: graphene-production/data/derived_data/raman/20170920_Gr-NH2_for_Radisurf/20170920 Gr-NH for Radisurf map 1 (part 2)

File: 2Dp int.txt
#XList		#YList		#IList
-28	-22	1.662526
-9.000000	-22	20.8289
10	-22	18.7471
29	-22	2.308062
-18.5	-21.5	13.8798
0.500000	-21.5	8.789414
19.5	-21.5	23.7428
-28	-21	1.441168
-9.000000	-21	12.9272
10	-21	13.0841
29	-21	4.893651
-18.5	-20.5	14.4141
0.500000	-20.5	0.460210
19.5	-20.5	17.0516
-28	-20	2.702222
-9.000000	-20	13.1677
10	-20	10.3688
29	-20	15.9761
-18.5	-19.5	13.8424
0.500000	-19.5	1.017104
19.5	-19.5	20.3966
-28	-19	1.623067
-9.000000	-19	3.642164
10	-19	8.018570
29	-19	19.2459
-18.5	-18.5	6.917621
0.500000	-18.5	1.536863
19.5	-18.5	18.2599
-28	-18	1.566507
-9.000000	-18	0.000000
10	-18	15.3048
29	-18	9.982177
-18.5	-17.5	10.9333
0.500000	-17.5	9.141809
19.5	-17.5	10.612
-28	-17	14.3188
-9.000000	-17	2.698700
10	-17	17.8356
29	-17	12.9832
-18.5	-16.5	19.124
0.500000	-16.5	5.714006
19.5	-16.5	11.7201
-28	-16	4.586040
-9.000000	-16	10.3766
10	-16	6.912355
29	-16	5.112257
-18.5	-15.5	17.257
0.500000	-15.5	10.9263
19.5	-15.5	6.021742
-28	-15	4.069349
-9.000000	-15	14.393
10	-15	9.740986
29	-15	7.016740
-18.5	-14.5	14.9096
0.500000	-14.5	12.5278
19.5	-14.5	1.467185
-28	-14	2.405854
-9.000000	-14	20.994
10	-14	5.191334
29	-14	13.4946
-18.5	-13.5	8.505288
0.500000	-13.5	11.0544
19.5	-13.5	1.694011
-28	-13	0.276805
-9.000000	-13	14.2885
10	-13	9.265605
29	-13	14.6892
-18.5	-12.5	10.4585
0.500000	-12.5	10.1023
19.5	-12.5	2.722433
-28	-12	1.131950
-9.000000	-12	12.1858
10	-12	1.634145
29	-12	13.0287
-18.5	-11.5	15.4559
0.500000	-11.5	3.207934
19.5	-11.5	3.951251
-28	-11	1.323152
-9.000000	-11	24.0338
10	-11	9.093466
29	-11	0.568275
-18.5	-10.5	16.1462
0.500000	-10.5	15.4238
19.5	-10.5	14.6665
-28	-10	7.179344
-9.000000	-10	20.6383
10	-10	7.880357
29	-10	1.712942
-18.5	-9.500000	13.1106
0.500000	-9.500000	11.0791
19.5	-9.500000	28.617
-28	-9.000000	9.743437
-9.000000	-9.000000	23.5518
10	-9.000000	12.4718
29	-9.000000	2.484310
-18.5	-8.500000	21.2846
0.500000	-8.500000	16.7239
19.5	-8.500000	20.8649
-28	-8.000000	2.038096
-9.000000	-8.000000	16.3669
10	-8.000000	10.4695
29	-8.000000	17.0768
-18.5	-7.500000	30.7059
0.500000	-7.500000	20.1774
19.5	-7.500000	7.484648
-28	-7.000000	2.589949
-9.000000	-7.000000	13.5302
10	-7.000000	6.019429
29	-7.000000	9.606038
-18.5	-6.500000	17.0327
0.500000	-6.500000	9.748914
19.5	-6.500000	12.7829
-28	-6.000000	6.223705
-9.000000	-6.000000	5.639043
10	-6.000000	11.4827
29	-6.000000	23.6764
-18.5	-5.500000	16.9385
0.500000	-5.500000	9.876072
19.5	-5.500000	15.5117
-28	-5.000000	11.5281
-9.000000	-5.000000	5.781015
10	-5.000000	8.862513
29	-5.000000	7.967350
-18.5	-4.500000	21.3502
0.500000	-4.500000	11.9591
19.5	-4.500000	8.334120
-28	-4.000000	6.518924
-9.000000	-4.000000	2.716203
10	-4.000000	12.2464
29	-4.000000	18.5325
-18.5	-3.500000	5.400930
0.500000	-3.500000	14.3459
19.5	-3.500000	8.652235
-28	-3.000000	3.735268
-9.000000	-3.000000	0.135615
10	-3.000000	21.9955
29	-3.000000	17.8948
-18.5	-2.500000	11.2816
0.500000	-2.500000	14.3003
19.5	-2.500000	9.294254
-28	-2.000000	6.848943
-9.000000	-2.000000	5.208435
10	-2.000000	13.9478
29	-2.000000	14.3841
-18.5	-1.500000	6.820598
0.500000	-1.500000	9.188410
19.5	-1.500000	4.932617
-28	-1.000000	7.610083
-9.000000	-1.000000	5.464253
10	-1.000000	11.1455
29	-1.000000	17.5928
-18.5	-0.500000	17.5208
0.500000	-0.500000	4.260634
19.5	-0.500000	8.293379
-28	0.000000	7.199411
-9.000000	0.000000	12.0281
10	0.000000	18.0751
29	0.000000	10.1637
-18.5	0.500000	18.5386
0.500000	0.500000	11.6417
19.5	0.500000	12.409
-28	1.000000	14.4788
-9.000000	1.000000	12.9
10	1.000000	15.1015
29	1.000000	15.9404
-18.5	1.500000	21.5212
0.500000	1.500000	18.2056
19.5	1.500000	9.384882
-28	2.000000	15.6575
-9.000000	2.000000	10.7896
10	2.000000	19.9449
29	2.000000	12.2949
-18.5	2.500000	13.3411
0.500000	2.500000	15.1669
19.5	2.500000	10.4261
-28	3.000000	27.3849
-9.000000	3.000000	14.4343
10	3.000000	15.8878
29	3.000000	13.0832
-18.5	3.500000	8.370586
0.500000	3.500000	14.6593
19.5	3.500000	7.413727
-28	4.000000	26.6485
-9.000000	4.000000	12.7592
10	4.000000	17.0874
29	4.000000	16.6543
-18.5	4.500000	8.651098
0.500000	4.500000	23.8249
19.5	4.500000	13.1854
-28	5.000000	19.4474
-9.000000	5.000000	18.8731
10	5.000000	14.4563
29	5.000000	16.9026
-18.5	5.500000	17.9619
0.500000	5.500000	21.3144
19.5	5.500000	6.675563
-28	6.000000	19.5217
-9.000000	6.000000	21.9028
10	6.000000	7.942195
29	6.000000	8.816583
-18.5	6.500000	13.9759
0.500000	6.500000	19.6425
19.5	6.500000	11.0853
-28	7.000000	6.687236
-9.000000	7.000000	28.2372
10	7.000000	8.399099
29	7.000000	11.7509
-18.5	7.500000	14.2263
0.500000	7.500000	14.9152
19.5	7.500000	9.433363
-28	8.000000	4.725366
-9.000000	8.000000	11.6466
10	8.000000	8.907574
29	8.000000	6.409953
-18.5	8.500000	12.9039
0.500000	8.500000	10.4033
19.5	8.500000	7.471570
-28	9.000000	2.167355
-9.000000	9.000000	24.7024
10	9.000000	15.9709
29	9.000000	8.535858
-18.5	9.500000	8.355698
0.500000	9.500000	19.1334
19.5	9.500000	12.2152
-28	10	0.000000
-9.000000	10	17.8447
10	10	10.6005
29	10	13.342
-18.5	10.5	6.309935
0.500000	10.5	10.1801
19.5	10.5	9.373714
-28	11	3.452580
-9.000000	11	26.1037
10	11	13.7704
29	11	16.135
-18.5	11.5	4.937680
0.500000	11.5	8.920313
19.5	11.5	15.4522
-28	12	3.241765
-9.000000	12	19.1418
10	12	9.877210
29	12	10.1582
-18.5	12.5	4.936953
0.500000	12.5	16.0868
19.5	12.5	14.4193
-28	13	5.366193
-9.000000	13	25.6457
10	13	8.304441
29	13	13.4386
-18.5	13.5	1.668477
0.500000	13.5	16.0379
19.5	13.5	14.7412
-28	14	0.527894
-9.000000	14	24.7301
10	14	17.5648
29	14	13.0337
-18.5	14.5	0.865248
0.500000	14.5	3.130139
19.5	14.5	25.0576
-28	15	0.874945
-9.000000	15	11.1537
10	15	11.3465
29	15	18.3069
-18.5	15.5	1.803767
0.500000	15.5	3.278870
19.5	15.5	13.6645
-28	16	1.422274
-9.000000	16	14.2837
10	16	15.7408
29	16	10.8144
-18.5	16.5	1.955771
0.500000	16.5	1.635229
19.5	16.5	11.5252
-28	17	1.768687
-9.000000	17	13.1742
10	17	2.367663
29	17	0.000000
-18.5	17.5	0.970487
0.500000	17.5	16.576
19.5	17.5	10.7528
-28	18	0.955603
-9.000000	18	11.1047
10	18	3.637081
29	18	1.094072
-18.5	18.5	2.037612
0.500000	18.5	7.183242
19.5	18.5	12.5415
-28	19	2.628195
-9.000000	19	5.582542
10	19	4.789334
29	19	1.132630
-18.5	19.5	1.702512
0.500000	19.5	12.2197
19.5	19.5	17.5233
-28	20	22.6146
-9.000000	20	2.627264
10	20	5.898586
29	20	1.830693
38	20	2.208768

File: 2Dp pos.txt
#XList		#YList		#IList
-28	-22	3131.74
-9.000000	-22	3149.41
10	-22	3169.45
29	-22	3242.4
-18.5	-21.5	3147.68
0.500000	-21.5	3161.63
19.5	-21.5	3147.69
-28	-21	3350
-9.000000	-21	3155.16
10	-21	3153.88
29	-21	3230.44
-18.5	-20.5	3145.37
0.500000	-20.5	3350
19.5	-20.5	3168.36
-28	-20	3350
-9.000000	-20	3176.79
10	-20	3166
29	-20	3179.69
-18.5	-19.5	3162.32
0.500000	-19.5	3285.14
19.5	-19.5	3164.3
-28	-19	3350
-9.000000	-19	3176.69
10	-19	3188.73
29	-19	3181.96
-18.5	-18.5	3207.7
0.500000	-18.5	3223.47
19.5	-18.5	3142.72
-28	-18	3350
-9.000000	-18	3308.33
10	-18	3161.37
29	-18	3157.56
-18.5	-17.5	3237.96
0.500000	-17.5	3245
19.5	-17.5	3146.72
-28	-17	3238.45
-9.000000	-17	3350
10	-17	3147.44
29	-17	3177.29
-18.5	-16.5	3185.47
0.500000	-16.5	3161.73
19.5	-16.5	3153.47
-28	-16	3188.84
-9.000000	-16	3157.42
10	-16	3194.04
29	-16	3196.88
-18.5	-15.5	3145.2
0.500000	-15.5	3234.73
19.5	-15.5	3216.39
-28	-15	3194.89
-9.000000	-15	3117.5
10	-15	3153.2
29	-15	3213.84
-18.5	-14.5	3181.41
0.500000	-14.5	3217.13
19.5	-14.5	3292.27
-28	-14	3350
-9.000000	-14	3139.8
10	-14	3206.61
29	-14	3132.28
-18.5	-13.5	3200.21
0.500000	-13.5	3191.36
19.5	-13.5	3350
-28	-13	3350
-9.000000	-13	3156.98
10	-13	3180.46
29	-13	3152.27
-18.5	-12.5	3146.37
0.500000	-12.5	3186.63
19.5	-12.5	3249.81
-28	-12	3185.71
-9.000000	-12	3152.37
10	-12	3176.3
29	-12	3163.2
-18.5	-11.5	3154.57
0.500000	-11.5	3179.04
19.5	-11.5	3220.08
-28	-11	3100
-9.000000	-11	3155.45
10	-11	3242.11
29	-11	3309.03
-18.5	-10.5	3165.68
0.500000	-10.5	3155.15
19.5	-10.5	3195.5
-28	-10	3188.04
-9.000000	-10	3152.02
10	-10	3189.19
29	-10	3100
-18.5	-9.500000	3129.49
0.500000	-9.500000	3158.66
19.5	-9.500000	3241.86
-28	-9.000000	3168.7
-9.000000	-9.000000	3149.2
10	-9.000000	3180.68
29	-9.000000	3198.38
-18.5	-8.500000	3147.57
0.500000	-8.500000	3145.95
19.5	-8.500000	3238.58
-28	-8.000000	3207.88
-9.000000	-8.000000	3145.61
10	-8.000000	3182.11
29	-8.000000	3237.2
-18.5	-7.500000	3144.23
0.500000	-7.500000	3126.06
19.5	-7.500000	3181.34
-28	-7.000000	3144.22
-9.000000	-7.000000	3161.01
10	-7.000000	3189.87
29	-7.000000	3221.9
-18.5	-6.500000	3155.21
0.500000	-6.500000	3164.49
19.5	-6.500000	3172.95
-28	-6.000000	3165.19
-9.000000	-6.000000	3153.56
10	-6.000000	3172.42
29	-6.000000	3242.6
-18.5	-5.500000	3137.14
0.500000	-5.500000	3188.5
19.5	-5.500000	3137.02
-28	-5.000000	3164.74
-9.000000	-5.000000	3167.15
10	-5.000000	3175.47
29	-5.000000	3167.81
-18.5	-4.500000	3150.76
0.500000	-4.500000	3142.36
19.5	-4.500000	3143.49
-28	-4.000000	3195.87
-9.000000	-4.000000	3350
10	-4.000000	3221.98
29	-4.000000	3228.8
-18.5	-3.500000	3126.14
0.500000	-3.500000	3157.02
19.5	-3.500000	3137.18
-28	-3.000000	3171.05
-9.000000	-3.000000	3350
10	-3.000000	3161.69
29	-3.000000	3149.75
-18.5	-2.500000	3160.59
0.500000	-2.500000	3158.1
19.5	-2.500000	3161.94
-28	-2.000000	3201.87
-9.000000	-2.000000	3148.73
10	-2.000000	3125.75
29	-2.000000	3143.48
-18.5	-1.500000	3160.45
0.500000	-1.500000	3188.51
19.5	-1.500000	3143.47
-28	-1.000000	3192.94
-9.000000	-1.000000	3140.96
10	-1.000000	3153.89
29	-1.000000	3151.05
-18.5	-0.500000	3160.4
0.500000	-0.500000	3161.43
19.5	-0.500000	3130.02
-28	0.000000	3186.02
-9.000000	0.000000	3142.13
10	0.000000	3157.03
29	0.000000	3200.72
-18.5	0.500000	3169.91
0.500000	0.500000	3148.17
19.5	0.500000	3136.18
-28	1.000000	3166.81
-9.000000	1.000000	3148.21
10	1.000000	3163.29
29	1.000000	3136.2
-18.5	1.500000	3169.03
0.500000	1.500000	3169.71
19.5	1.500000	3154.92
-28	2.000000	3170.83
-9.000000	2.000000	3155.57
10	2.000000	3150.17
29	2.000000	3154.29
-18.5	2.500000	3141.68
0.500000	2.500000	3181.93
19.5	2.500000	3122.27
-28	3.000000	3178.06
-9.000000	3.000000	3160.55
10	3.000000	3162.09
29	3.000000	3144.07
-18.5	3.500000	3161.35
0.500000	3.500000	3170.47
19.5	3.500000	3173.92
-28	4.000000	3166.95
-9.000000	4.000000	3162.27
10	4.000000	3170.28
29	4.000000	3170.85
-18.5	4.500000	3165.27
0.500000	4.500000	3165.3
19.5	4.500000	3142.97
-28	5.000000	3168.59
-9.000000	5.000000	3178.48
10	5.000000	3178.91
29	5.000000	3146.96
-18.5	5.500000	3172.96
0.500000	5.500000	3160.02
19.5	5.500000	3121.15
-28	6.000000	3172.6
-9.000000	6.000000	3150
10	6.000000	3179.73
29	6.000000	3149.09
-18.5	6.500000	3150.92
0.500000	6.500000	3130.4
19.5	6.500000	3136.06
-28	7.000000	3169.49
-9.000000	7.000000	3158.82
10	7.000000	3224.85
29	7.000000	3162.71
-18.5	7.500000	3181.68
0.500000	7.500000	3174.39
19.5	7.500000	3152.71
-28	8.000000	3159
-9.000000	8.000000	3156.98
10	8.000000	3190.98
29	8.000000	3131.73
-18.5	8.500000	3156.98
0.500000	8.500000	3150.54
19.5	8.500000	3190.91
-28	9.000000	3100
-9.000000	9.000000	3161.33
10	9.000000	3150.93
29	9.000000	3150.92
-18.5	9.500000	3192.86
0.500000	9.500000	3156.24
19.5	9.500000	3139.4
-28	10	3319.77
-9.000000	10	3149.95
10	10	3164.8
29	10	3165.12
-18.5	10.5	3179.02
0.500000	10.5	3174.99
19.5	10.5	3174.35
-28	11	3269.75
-9.000000	11	3155.95
10	11	3198.74
29	11	3171.01
-18.5	11.5	3149.83
0.500000	11.5	3158.86
19.5	11.5	3166.28
-28	12	3100
-9.000000	12	3169.11
10	12	3182.5
29	12	3152.53
-18.5	12.5	3170.73
0.500000	12.5	3165.52
19.5	12.5	3175.33
-28	13	3193.04
-9.000000	13	3149.81
10	13	3177.28
29	13	3179.11
-18.5	13.5	3350
0.500000	13.5	3151.11
19.5	13.5	3175.2
-28	14	3350
-9.000000	14	3138.66
10	14	3160.6
29	14	3167.68
-18.5	14.5	3350
0.500000	14.5	3150.01
19.5	14.5	3168.45
-28	15	3167.94
-9.000000	15	3157.87
10	15	3163.25
29	15	3154.98
-18.5	15.5	3350
0.500000	15.5	3142.04
19.5	15.5	3144.33
-28	16	3177.56
-9.000000	16	3147.23
10	16	3170.17
29	16	3167.79
-18.5	16.5	3350
0.500000	16.5	3342.97
19.5	16.5	3169.12
-28	17	3350
-9.000000	17	3145.15
10	17	3182.6
29	17	3100
-18.5	17.5	3348.9
0.500000	17.5	3189.96
19.5	17.5	3186.33
-28	18	3270.58
-9.000000	18	3168.64
10	18	3182.05
29	18	3350
-18.5	18.5	3324.2
0.500000	18.5	3147.4
19.5	18.5	3181.8
-28	19	3191.71
-9.000000	19	3210.4
10	19	3222.75
29	19	3228.93
-18.5	19.5	3350
0.500000	19.5	3165.22
19.5	19.5	3164.18
-28	20	3176.97
-9.000000	20	3139.12
10	20	3161.74
29	20	3350
38	20	3169.35

File: D FWHM.txt
#XList		#YList		#IList
-28	-22	2.376360
-9.000000	-22	98.838
10	-22	88.679
29	-22	126.096
-18.5	-21.5	85.3113
0.500000	-21.5	111.368
19.5	-21.5	93.28
-28	-21	1.070452
-9.000000	-21	101.324
10	-21	83.1413
29	-21	110.315
-18.5	-20.5	99.5594
0.500000	-20.5	70.042
19.5	-20.5	92.4996
-28	-20	4.098460
-9.000000	-20	109.933
10	-20	86.1893
29	-20	110.434
-18.5	-19.5	117.849
0.500000	-19.5	46.5708
19.5	-19.5	91.282
-28	-19	56.0894
-9.000000	-19	88.5855
10	-19	93.032
29	-19	95.7152
-18.5	-18.5	97.9316
0.500000	-18.5	41.0621
19.5	-18.5	94.7059
-28	-18	54.0554
-9.000000	-18	74.4391
10	-18	91.8032
29	-18	86.0567
-18.5	-17.5	96.3425
0.500000	-17.5	108.967
19.5	-17.5	117.222
-28	-17	90.4043
-9.000000	-17	87.0136
10	-17	102.282
29	-17	96.0621
-18.5	-16.5	99.9667
0.500000	-16.5	105.756
19.5	-16.5	110.86
-28	-16	92.9614
-9.000000	-16	95.6193
10	-16	105.471
29	-16	98.196
-18.5	-15.5	93.3538
0.500000	-15.5	101.133
19.5	-15.5	92.9213
-28	-15	82.3138
-9.000000	-15	89.3242
10	-15	104.71
29	-15	92.0163
-18.5	-14.5	105.373
0.500000	-14.5	89.0307
19.5	-14.5	92.3615
-28	-14	13.7729
-9.000000	-14	106.38
10	-14	115.531
29	-14	92.0542
-18.5	-13.5	102.787
0.500000	-13.5	77.3424
19.5	-13.5	49.1715
-28	-13	74.4934
-9.000000	-13	95.3011
10	-13	92.1731
29	-13	76.337
-18.5	-12.5	106.339
0.500000	-12.5	74.9971
19.5	-12.5	91.6477
-28	-12	62.1915
-9.000000	-12	100.988
10	-12	76.3249
29	-12	87.1147
-18.5	-11.5	100.755
0.500000	-11.5	70.4305
19.5	-11.5	84.2601
-28	-11	68.3418
-9.000000	-11	94.443
10	-11	86.5486
29	-11	74.0211
-18.5	-10.5	109.149
0.500000	-10.5	71.9455
19.5	-10.5	96.0298
-28	-10	96.5598
-9.000000	-10	104.833
10	-10	92.0587
29	-10	0.688534
-18.5	-9.500000	104.314
0.500000	-9.500000	103.724
19.5	-9.500000	114.883
-28	-9.000000	90.3664
-9.000000	-9.000000	105.474
10	-9.000000	92.4086
29	-9.000000	93.8627
-18.5	-8.500000	102.574
0.500000	-8.500000	92.2725
19.5	-8.500000	92.8578
-28	-8.000000	104.782
-9.000000	-8.000000	101.783
10	-8.000000	84.8344
29	-8.000000	83.1902
-18.5	-7.500000	98.6663
0.500000	-7.500000	94.9422
19.5	-7.500000	98.5032
-28	-7.000000	95.4606
-9.000000	-7.000000	96.0335
10	-7.000000	96.3258
29	-7.000000	76.9378
-18.5	-6.500000	96.9395
0.500000	-6.500000	110.006
19.5	-6.500000	93.8963
-28	-6.000000	103.77
-9.000000	-6.000000	106.659
10	-6.000000	87.2748
29	-6.000000	72.5417
-18.5	-5.500000	92.9751
0.500000	-5.500000	83.1484
19.5	-5.500000	91.9851
-28	-5.000000	98.8546
-9.000000	-5.000000	94.8604
10	-5.000000	89.7175
29	-5.000000	100.64
-18.5	-4.500000	91.1526
0.500000	-4.500000	85.1136
19.5	-4.500000	103.644
-28	-4.000000	100.553
-9.000000	-4.000000	47.2428
10	-4.000000	108.251
29	-4.000000	92.0297
-18.5	-3.500000	96.2201
0.500000	-3.500000	95.3891
19.5	-3.500000	94.9295
-28	-3.000000	115.492
-9.000000	-3.000000	55.1506
10	-3.000000	86.7823
29	-3.000000	91.9265
-18.5	-2.500000	83.112
0.500000	-2.500000	86.5266
19.5	-2.500000	85.1819
-28	-2.000000	103.196
-9.000000	-2.000000	98.8656
10	-2.000000	87.6115
29	-2.000000	86.2643
-18.5	-1.500000	89.5342
0.500000	-1.500000	90.8379
19.5	-1.500000	86.3825
-28	-1.000000	101.56
-9.000000	-1.000000	103.898
10	-1.000000	93.9418
29	-1.000000	82.182
-18.5	-0.500000	90.4791
0.500000	-0.500000	117.346
19.5	-0.500000	91.3329
-28	0.000000	103.74
-9.000000	0.000000	95.825
10	0.000000	91.1193
29	0.000000	97.9983
-18.5	0.500000	77.8984
0.500000	0.500000	104.176
19.5	0.500000	84.2161
-28	1.000000	98.8849
-9.000000	1.000000	86.7353
10	1.000000	85.1719
29	1.000000	94.1468
-18.5	1.500000	91.1738
0.500000	1.500000	93.8842
19.5	1.500000	96.8674
-28	2.000000	102.666
-9.000000	2.000000	81.4479
10	2.000000	84.512
29	2.000000	89.6502
-18.5	2.500000	89.5031
0.500000	2.500000	95.1909
19.5	2.500000	88.6632
-28	3.000000	99.0213
-9.000000	3.000000	80.4957
10	3.000000	88.5376
29	3.000000	92.8285
-18.5	3.500000	92.5814
0.500000	3.500000	100.222
19.5	3.500000	95.636
-28	4.000000	101.2
-9.000000	4.000000	82.8999
10	4.000000	84.7872
29	4.000000	87.225
-18.5	4.500000	88.4412
0.500000	4.500000	92.0255
19.5	4.500000	102.493
-28	5.000000	88.2206
-9.000000	5.000000	89.8493
10	5.000000	95.5716
29	5.000000	88.3155
-18.5	5.500000	98.5078
0.500000	5.500000	95.4564
19.5	5.500000	90.6731
-28	6.000000	80.8373
-9.000000	6.000000	95.449
10	6.000000	104.556
29	6.000000	98.7505
-18.5	6.500000	80.3283
0.500000	6.500000	91.9274
19.5	6.500000	86.6433
-28	7.000000	100.165
-9.000000	7.000000	93.596
10	7.000000	92.5238
29	7.000000	91.0561
-18.5	7.500000	88.7469
0.500000	7.500000	93.8108
19.5	7.500000	81.4086
-28	8.000000	105.302
-9.000000	8.000000	93.4206
10	8.000000	108.397
29	8.000000	103.801
-18.5	8.500000	93.8082
0.500000	8.500000	100.897
19.5	8.500000	99.5981
-28	9.000000	1.095103
-9.000000	9.000000	89.8264
10	9.000000	80.1204
29	9.000000	85.8395
-18.5	9.500000	84.6972
0.500000	9.500000	78.3045
19.5	9.500000	81.2384
-28	10	0.639823
-9.000000	10	94.2747
10	10	83.2859
29	10	82.8381
-18.5	10.5	90.0163
0.500000	10.5	73.6991
19.5	10.5	97.497
-28	11	75.745
-9.000000	11	88.2649
10	11	87.1786
29	11	84.9028
-18.5	11.5	99.5986
0.500000	11.5	82.8827
19.5	11.5	83.7596
-28	12	65.5959
-9.000000	12	89.6153
10	12	96.4588
29	12	92.762
-18.5	12.5	93.6147
0.500000	12.5	87.8256
19.5	12.5	79.2655
-28	13	99.7563
-9.000000	13	86.379
10	13	89.2576
29	13	91.3349
-18.5	13.5	0.639823
0.500000	13.5	92.2524
19.5	13.5	87.7253
-28	14	10.6063
-9.000000	14	89.0419
10	14	84.4777
29	14	92.2741
-18.5	14.5	48.9405
0.500000	14.5	96.1636
19.5	14.5	85.3685
-28	15	2.602879
-9.000000	15	90.0515
10	15	86.5106
29	15	89.3284
-18.5	15.5	0.639823
0.500000	15.5	90.8049
19.5	15.5	88.8916
-28	16	0.639823
-9.000000	16	92.5285
10	16	86.8478
29	16	97.184
-18.5	16.5	222.846
0.500000	16.5	87.932
19.5	16.5	80.8181
-28	17	66.6607
-9.000000	17	77.3504
10	17	86.5729
29	17	109.744
-18.5	17.5	2595.12
0.500000	17.5	103.936
19.5	17.5	78.4563
-28	18	97.1376
-9.000000	18	92.2791
10	18	110.383
29	18	84.6982
-18.5	18.5	773.137
0.500000	18.5	102.553
19.5	18.5	78.3928
-28	19	114.819
-9.000000	19	84.8548
10	19	95.4517
29	19	23.6185
-18.5	19.5	5.523347
0.500000	19.5	88.1426
19.5	19.5	81.2563
-28	20	98.1228
-9.000000	20	114.809
10	20	78.5675
29	20	256.976
38	20	60.1485

File: D int.txt
#XList		#YList		#IList
-28	-22	3.583256
-9.000000	-22	391.178
10	-22	316.939
29	-22	10.6639
-18.5	-21.5	237.393
0.500000	-21.5	192.633
19.5	-21.5	339.025
-28	-21	4.431904
-9.000000	-21	297.168
10	-21	196.247
29	-21	47.1002
-18.5	-20.5	259.712
0.500000	-20.5	14.7635
19.5	-20.5	284.217
-28	-20	2.397109
-9.000000	-20	276.678
10	-20	211.726
29	-20	94.8757
-18.5	-19.5	255.806
0.500000	-19.5	3.351803
19.5	-19.5	274.574
-28	-19	3.693740
-9.000000	-19	103.615
10	-19	260.234
29	-19	196.311
-18.5	-18.5	169.652
0.500000	-18.5	4.156569
19.5	-18.5	298.372
-28	-18	6.384788
-9.000000	-18	4.773731
10	-18	267.911
29	-18	205.691
-18.5	-17.5	68.642
0.500000	-17.5	52.724
19.5	-17.5	303.812
-28	-17	49.4487
-9.000000	-17	6.868470
10	-17	298.224
29	-17	154.361
-18.5	-16.5	282.569
0.500000	-16.5	48.1465
19.5	-16.5	279.688
-28	-16	58.5615
-9.000000	-16	123.391
10	-16	241.203
29	-16	62.4582
-18.5	-15.5	238.785
0.500000	-15.5	43.5747
19.5	-15.5	164.8
-28	-15	54.5657
-9.000000	-15	280.51
10	-15	254.265
29	-15	37.9304
-18.5	-14.5	299.493
0.500000	-14.5	142.723
19.5	-14.5	33.5016
-28	-14	4.647367
-9.000000	-14	314.818
10	-14	186.106
29	-14	96.4637
-18.5	-13.5	184.852
0.500000	-13.5	209.179
19.5	-13.5	7.336876
-28	-13	3.802430
-9.000000	-13	328.005
10	-13	82.7993
29	-13	136.491
-18.5	-12.5	53.8101
0.500000	-12.5	154.06
19.5	-12.5	14.2695
-28	-12	12.2955
-9.000000	-12	304.78
10	-12	10.9881
29	-12	186.066
-18.5	-11.5	330.97
0.500000	-11.5	109.043
19.5	-11.5	105.329
-28	-11	7.757865
-9.000000	-11	310.297
10	-11	99.8824
29	-11	14.4903
-18.5	-10.5	280.091
0.500000	-10.5	188.59
19.5	-10.5	172.868
-28	-10	188.46
-9.000000	-10	284.655
10	-10	96.4471
29	-10	5.480497
-18.5	-9.500000	326.613
0.500000	-9.500000	219.701
19.5	-9.500000	57.0738
-28	-9.000000	176.338
-9.000000	-9.000000	258.786
10	-9.000000	169.226
29	-9.000000	20.9549
-18.5	-8.500000	335.294
0.500000	-8.500000	258.054
19.5	-8.500000	101.97
-28	-8.000000	19.3241
-9.000000	-8.000000	231.617
10	-8.000000	202.24
29	-8.000000	70.8103
-18.5	-7.500000	295.579
0.500000	-7.500000	261.727
19.5	-7.500000	77.5858
-28	-7.000000	32.7331
-9.000000	-7.000000	245.327
10	-7.000000	254.936
29	-7.000000	25.1354
-18.5	-6.500000	195.604
0.500000	-6.500000	290.252
19.5	-6.500000	250.896
-28	-6.000000	59.8571
-9.000000	-6.000000	192.93
10	-6.000000	247.281
29	-6.000000	28.3934
-18.5	-5.500000	200.987
0.500000	-5.500000	180.114
19.5	-5.500000	177.238
-28	-5.000000	79.3844
-9.000000	-5.000000	5.337045
10	-5.000000	189.016
29	-5.000000	96.1325
-18.5	-4.500000	211.578
0.500000	-4.500000	239.453
19.5	-4.500000	152.741
-28	-4.000000	60.5961
-9.000000	-4.000000	0.902826
10	-4.000000	66.2922
29	-4.000000	158.13
-18.5	-3.500000	224.946
0.500000	-3.500000	288.784
19.5	-3.500000	128.907
-28	-3.000000	54.4793
-9.000000	-3.000000	2.390090
10	-3.000000	256.129
29	-3.000000	200.665
-18.5	-2.500000	251.745
0.500000	-2.500000	258.485
19.5	-2.500000	136.384
-28	-2.000000	55.5723
-9.000000	-2.000000	47.4856
10	-2.000000	231.983
29	-2.000000	224.447
-18.5	-1.500000	217.602
0.500000	-1.500000	240.103
19.5	-1.500000	129.664
-28	-1.000000	62.4609
-9.000000	-1.000000	270.535
10	-1.000000	243.809
29	-1.000000	226.42
-18.5	-0.500000	254.67
0.500000	-0.500000	112.286
19.5	-0.500000	118.628
-28	0.000000	61.7381
-9.000000	0.000000	276.976
10	0.000000	267.093
29	0.000000	222.763
-18.5	0.500000	272.06
0.500000	0.500000	184.725
19.5	0.500000	124.554
-28	1.000000	77.9906
-9.000000	1.000000	220.947
10	1.000000	268.544
29	1.000000	225.19
-18.5	1.500000	301.555
0.500000	1.500000	195.243
19.5	1.500000	128.708
-28	2.000000	159.771
-9.000000	2.000000	177.429
10	2.000000	272.23
29	2.000000	241.727
-18.5	2.500000	269.544
0.500000	2.500000	169.179
19.5	2.500000	123.94
-28	3.000000	216.395
-9.000000	3.000000	151.607
10	3.000000	274.764
29	3.000000	218.06
-18.5	3.500000	301.787
0.500000	3.500000	159.538
19.5	3.500000	155.248
-28	4.000000	224.204
-9.000000	4.000000	121.278
10	4.000000	168.738
29	4.000000	208.831
-18.5	4.500000	266.401
0.500000	4.500000	256.232
19.5	4.500000	136.517
-28	5.000000	263.844
-9.000000	5.000000	201.66
10	5.000000	113.202
29	5.000000	185.991
-18.5	5.500000	247.513
0.500000	5.500000	188.105
19.5	5.500000	132.118
-28	6.000000	178.263
-9.000000	6.000000	223.436
10	6.000000	90.9831
29	6.000000	141.038
-18.5	6.500000	191.987
0.500000	6.500000	184.995
19.5	6.500000	182.682
-28	7.000000	207.923
-9.000000	7.000000	237.227
10	7.000000	78.5226
29	7.000000	164.328
-18.5	7.500000	160.83
0.500000	7.500000	196.085
19.5	7.500000	209.763
-28	8.000000	11.611
-9.000000	8.000000	187.171
10	8.000000	112.881
29	8.000000	155.422
-18.5	8.500000	231.159
0.500000	8.500000	225.571
19.5	8.500000	135.761
-28	9.000000	23.6196
-9.000000	9.000000	223.413
10	9.000000	202.199
29	9.000000	147.227
-18.5	9.500000	180.722
0.500000	9.500000	236.639
19.5	9.500000	204.896
-28	10	0.000000
-9.000000	10	217.123
10	10	177.262
29	10	159.566
-18.5	10.5	19.8859
0.500000	10.5	221.298
19.5	10.5	215.023
-28	11	8.083953
-9.000000	11	235.031
10	11	137.127
29	11	172.02
-18.5	11.5	46.0995
0.500000	11.5	231.536
19.5	11.5	189.369
-28	12	9.007342
-9.000000	12	253.521
10	12	93.403
29	12	137.59
-18.5	12.5	2.455814
0.500000	12.5	245.864
19.5	12.5	178.622
-28	13	0.000000
-9.000000	13	275.035
10	13	97.957
29	13	201.713
-18.5	13.5	21.3398
0.500000	13.5	276.478
19.5	13.5	188.454
-28	14	2.980170
-9.000000	14	270.335
10	14	233.994
29	14	171.806
-18.5	14.5	1.540964
0.500000	14.5	91.8583
19.5	14.5	225.505
-28	15	5.472658
-9.000000	15	201.899
10	15	261.028
29	15	177.965
-18.5	15.5	0.000000
0.500000	15.5	114.722
19.5	15.5	210.668
-28	16	0.000000
-9.000000	16	230.043
10	16	272.14
29	16	248.077
-18.5	16.5	0.000000
0.500000	16.5	14.0626
19.5	16.5	186.737
-28	17	0.547189
-9.000000	17	289.753
10	17	99.5814
29	17	229.776
-18.5	17.5	0.875746
0.500000	17.5	102.79
19.5	17.5	125.322
-28	18	2.344220
-9.000000	18	181.13
10	18	45.8777
29	18	58.7147
-18.5	18.5	0.000000
0.500000	18.5	84.4678
19.5	18.5	149.95
-28	19	34.9131
-9.000000	19	108.859
10	19	140.538
29	19	2.699436
-18.5	19.5	2.628226
0.500000	19.5	174.076
19.5	19.5	183.978
-28	20	231.777
-9.000000	20	25.2454
10	20	136.391
29	20	0.000000
38	20	2.849677