Folder: graphene-production/data/derived_data/raman/20170920_Gr-NH2_for_Radisurf/20170920 Gr-NH for Radisurf map 2 (part 3)

File: D FWHM.txt
#XList		#YList		#IList
-39.3414	-21.065	100.945
-30.3414	-21.065	98.6695
-21.3414	-21.065	89.5212
-12.3414	-21.065	94.2915
-3.341423	-21.065	94.305
5.658577	-21.065	100.93
14.6586	-21.065	87.5437
23.6586	-21.065	2.949937
-32.3414	-20.065	96.9222
-23.3414	-20.065	71.0246
-14.3414	-20.065	95.7885
-5.341423	-20.065	85.0216
3.658577	-20.065	91.6061
12.6586	-20.065	89.6965
21.6586	-20.065	96.1897
-34.3414	-19.065	110.715
-25.3414	-19.065	85.0247
-16.3414	-19.065	99.0336
-7.341423	-19.065	85.8439
1.658577	-19.065	92.6111
10.6586	-19.065	72.201
19.6586	-19.065	93.5812
-36.3414	-18.065	103.161
-27.3414	-18.065	82.9795
-18.3414	-18.065	81.797
-9.341423	-18.065	91.3469
-0.341423	-18.065	89.6171
8.658577	-18.065	102.611
17.6586	-18.065	94.7492
-38.3414	-17.065	101.418
-29.3414	-17.065	81.6714
-20.3414	-17.065	89.8739
-11.3414	-17.065	98.187
-2.341423	-17.065	95.0341
6.658577	-17.065	97.167
15.6586	-17.065	97.6907
24.6586	-17.065	99.9939
-31.3414	-16.065	88.6065
-22.3414	-16.065	87.3011
-13.3414	-16.065	99.0607
-4.341423	-16.065	97.5201
4.658577	-16.065	105.052
13.6586	-16.065	103.449
22.6586	-16.065	96.0425
-33.3414	-15.065	100.939
-24.3414	-15.065	81.9028
-15.3414	-15.065	97.0852
-6.341423	-15.065	87.0557
2.658577	-15.065	95.296
11.6586	-15.065	96.8228
20.6586	-15.065	97.036
-35.3414	-14.065	95.4825
-26.3414	-14.065	89.3885
-17.3414	-14.065	99.9734
-8.341423	-14.065	78.2617
0.658577	-14.065	96.0964
9.658577	-14.065	98.3935
18.6586	-14.065	98.8228
-37.3414	-13.065	98.4533
-28.3414	-13.065	84.9309
-19.3414	-13.065	91.2517
-10.3414	-13.065	81.7315
-1.341423	-13.065	96.5648
7.658577	-13.065	101.589
16.6586	-13.065	96.533
-39.3414	-12.065	94.7587
-30.3414	-12.065	95.7645
-21.3414	-12.065	89.8829
-12.3414	-12.065	82.9223
-3.341423	-12.065	93.0973
5.658577	-12.065	96.6784
14.6586	-12.065	83.384
23.6586	-12.065	102.508
-32.3414	-11.065	96.4895
-23.3414	-11.065	83.6869
-14.3414	-11.065	95.9567
-5.341423	-11.065	90.6043
3.658577	-11.065	107.987
12.6586	-11.065	116.093
21.6586	-11.065	92.2765
-34.3414	-10.065	99.7783
-25.3414	-10.065	96.0893
-16.3414	-10.065	92.5553
-7.341423	-10.065	96.2122
1.658577	-10.065	98.2479
10.6586	-10.065	0.639823
19.6586	-10.065	95.8812
-36.3414	-9.065000	93.998
-27.3414	-9.065000	95.0474
-18.3414	-9.065000	91.3521
-9.341423	-9.065000	96.6114
-0.341423	-9.065000	96.8786
8.658577	-9.065000	93.3363
17.6586	-9.065000	105.58
-38.3414	-8.065000	94.6527
-29.3414	-8.065000	95.0458
-20.3414	-8.065000	103.965
-11.3414	-8.065000	97.771
-2.341423	-8.065000	96.7659
6.658577	-8.065000	88.1063
15.6586	-8.065000	98.3003
24.6586	-8.065000	98.1327
-31.3414	-7.065000	96.3434
-22.3414	-7.065000	89.4642
-13.3414	-7.065000	88.3419
-4.341423	-7.065000	78.7197
4.658577	-7.065000	79.0318
13.6586	-7.065000	92.1709
22.6586	-7.065000	99.459
-33.3414	-6.065000	99.811
-24.3414	-6.065000	97.1169
-15.3414	-6.065000	101.153
-6.341423	-6.065000	99.5856
2.658577	-6.065000	92.75
11.6586	-6.065000	99.0146
20.6586	-6.065000	99.228
-35.3414	-5.065000	94.5463
-26.3414	-5.065000	96.6903
-17.3414	-5.065000	112.93
-8.341423	-5.065000	97.7505
0.658577	-5.065000	92.0748
9.658577	-5.065000	97.0367
18.6586	-5.065000	95.9738
-37.3414	-4.065000	91.7714
-28.3414	-4.065000	97.3793
-19.3414	-4.065000	104.299
-10.3414	-4.065000	101.192
-1.341423	-4.065000	95.041
7.658577	-4.065000	95.029
16.6586	-4.065000	99.3114
-39.3414	-3.065000	0.639823
-30.3414	-3.065000	98.8193
-21.3414	-3.065000	86.3837
-12.3414	-3.065000	99.4818
-3.341423	-3.065000	90.6265
5.658577	-3.065000	101.077
14.6586	-3.065000	102.023
23.6586	-3.065000	75.6661
-32.3414	-2.065000	97.0886
-23.3414	-2.065000	98.5401
-14.3414	-2.065000	97.6101
-5.341423	-2.065000	99.3975
3.658577	-2.065000	87.9671
12.6586	-2.065000	100.467
21.6586	-2.065000	102.94
-34.3414	-1.065000	106.944
-25.3414	-1.065000	94.9273
-16.3414	-1.065000	102.412
-7.341423	-1.065000	92.5504
1.658577	-1.065000	96.2496
10.6586	-1.065000	83.0266
19.6586	-1.065000	95.7757
-36.3414	-0.065000	109.178
-27.3414	-0.065000	14.1829
-18.3414	-0.065000	98.733
-9.341423	-0.065000	100.056
-0.341423	-0.065000	91.3807
8.658577	-0.065000	99.5352
17.6586	-0.065000	89.8658
-38.3414	0.935000	69.163
-29.3414	0.935000	74.94
-20.3414	0.935000	93.6308
-11.3414	0.935000	99.5873
-2.341423	0.935000	92.3604
6.658577	0.935000	100.625
15.6586	0.935000	92.784
24.6586	0.935000	85.2455
-31.3414	1.935000	81.1258
-22.3414	1.935000	97.2319
-13.3414	1.935000	101.017
-4.341423	1.935000	98.453
4.658577	1.935000	99.8175
13.6586	1.935000	96.433
22.6586	1.935000	90.0919
-33.3414	2.935000	95.6413
-24.3414	2.935000	94.9827
-15.3414	2.935000	89.7328
-6.341423	2.935000	97.7094
2.658577	2.935000	89.0075
11.6586	2.935000	95.9978
20.6586	2.935000	88.5331
-35.3414	3.935000	96.293
-26.3414	3.935000	96.9174
-17.3414	3.935000	95.1434
-8.341423	3.935000	103.786
0.658577	3.935000	94.6616
9.658577	3.935000	95.4195
18.6586	3.935000	95.056
-37.3414	4.935000	95.7637
-28.3414	4.935000	92.6192
-19.3414	4.935000	95.0256
-10.3414	4.935000	99.9621
-1.341423	4.935000	95.2158
7.658577	4.935000	95.6241
16.6586	4.935000	89.4784
-39.3414	5.935000	95.7717
-30.3414	5.935000	99.1367
-21.3414	5.935000	96.2588
-12.3414	5.935000	89.9597
-3.341423	5.935000	94.0805
5.658577	5.935000	94.3641
14.6586	5.935000	100.364
23.6586	5.935000	98.6524
-32.3414	6.935000	94.5213
-23.3414	6.935000	94.0601
-14.3414	6.935000	98.5397
-5.341423	6.935000	99.1315
3.658577	6.935000	97.359
12.6586	6.935000	96.4656
21.6586	6.935000	96.561
-34.3414	7.935000	97.0542
-25.3414	7.935000	96.1997
-16.3414	7.935000	95.0944
-7.341423	7.935000	62.1066
1.658577	7.935000	100.361
10.6586	7.935000	97.9566
19.6586	7.935000	108.016
-36.3414	8.935000	100.856
-27.3414	8.935000	93.329
-18.3414	8.935000	91.2583
-9.341423	8.935000	62.9166
-0.341423	8.935000	94.0567
8.658577	8.935000	90.7832
17.6586	8.935000	101.428
-38.3414	9.935000	98.4013
-29.3414	9.935000	96.1509
-20.3414	9.935000	91.0436
-11.3414	9.935000	85.8157
-2.341423	9.935000	98.4518
6.658577	9.935000	108.38
15.6586	9.935000	99.1012
24.6586	9.935000	102.78
-31.3414	10.935	98.8795
-22.3414	10.935	84.9156
-13.3414	10.935	98.7392
-4.341423	10.935	96.4263
4.658577	10.935	102.657
13.6586	10.935	105.429
22.6586	10.935	93.1296
-33.3414	11.935	96.8241
-24.3414	11.935	85.5938
-15.3414	11.935	94.2258
-6.341423	11.935	77.2933
2.658577	11.935	99.1549
11.6586	11.935	98.2469
20.6586	11.935	106.14
-35.3414	12.935	96.2444
-26.3414	12.935	82.6494
-17.3414	12.935	84.46
-8.341423	12.935	90.1494
0.658577	12.935	103.535
9.658577	12.935	92.7158
18.6586	12.935	86.8917
-37.3414	13.935	95.0802
-28.3414	13.935	84.2323
-19.3414	13.935	93.8381
-10.3414	13.935	90.227
-1.341423	13.935	89.7322
7.658577	13.935	97.0882
16.6586	13.935	1.481596
-39.3414	14.935	99.3629
-30.3414	14.935	94.4994
-21.3414	14.935	98.1964
-12.3414	14.935	89.1593
-3.341423	14.935	94.4373
5.658577	14.935	108.353
14.6586	14.935	68.3085
23.6586	14.935	41.9349
-32.3414	15.935	98.3737
-23.3414	15.935	80.3124
-14.3414	15.935	91.5005
-5.341423	15.935	106.582
3.658577	15.935	106.335
12.6586	15.935	96.9345
21.6586	15.935	1.799804
24.6586	15.935	596.577

File: D int.txt
#XList		#YList		#IList
-39.3414	-21.065	137.29
-30.3414	-21.065	761.05
-21.3414	-21.065	235.947
-12.3414	-21.065	958.687
-3.341423	-21.065	50.623
5.658577	-21.065	92.945
14.6586	-21.065	651.862
23.6586	-21.065	11.762
-32.3414	-20.065	797.547
-23.3414	-20.065	205.425
-14.3414	-20.065	993.835
-5.341423	-20.065	381.862
3.658577	-20.065	121.969
12.6586	-20.065	531.964
21.6586	-20.065	337.374
-34.3414	-19.065	32.8605
-25.3414	-19.065	568.789
-16.3414	-19.065	1235.9
-7.341423	-19.065	612.224
1.658577	-19.065	99.0835
10.6586	-19.065	237.358
19.6586	-19.065	631.309
-36.3414	-18.065	224.227
-27.3414	-18.065	561.874
-18.3414	-18.065	531.198
-9.341423	-18.065	466.282
-0.341423	-18.065	247.413
8.658577	-18.065	895.249
17.6586	-18.065	427.06
-38.3414	-17.065	607.024
-29.3414	-17.065	570.713
-20.3414	-17.065	182.557
-11.3414	-17.065	630.965
-2.341423	-17.065	247.431
6.658577	-17.065	424.432
15.6586	-17.065	770.359
24.6586	-17.065	645.941
-31.3414	-16.065	557.64
-22.3414	-16.065	623.959
-13.3414	-16.065	1167.51
-4.341423	-16.065	425.219
4.658577	-16.065	100.81
13.6586	-16.065	98.8262
22.6586	-16.065	402.246
-33.3414	-15.065	1005.7
-24.3414	-15.065	590.254
-15.3414	-15.065	939.519
-6.341423	-15.065	353.15
2.658577	-15.065	191.039
11.6586	-15.065	681.939
20.6586	-15.065	124.922
-35.3414	-14.065	886.749
-26.3414	-14.065	614.202
-17.3414	-14.065	305.394
-8.341423	-14.065	157.593
0.658577	-14.065	409.039
9.658577	-14.065	669.539
18.6586	-14.065	121.749
-37.3414	-13.065	1003.55
-28.3414	-13.065	591.52
-19.3414	-13.065	216.931
-10.3414	-13.065	290.505
-1.341423	-13.065	268.114
7.658577	-13.065	838.843
16.6586	-13.065	198.278
-39.3414	-12.065	806.499
-30.3414	-12.065	758.624
-21.3414	-12.065	147.035
-12.3414	-12.065	451.749
-3.341423	-12.065	344.187
5.658577	-12.065	159.354
14.6586	-12.065	376.129
23.6586	-12.065	385.089
-32.3414	-11.065	715.343
-23.3414	-11.065	633.727
-14.3414	-11.065	172.724
-5.341423	-11.065	164.739
3.658577	-11.065	53.9914
12.6586	-11.065	37.3484
21.6586	-11.065	77.5047
-34.3414	-10.065	788.913
-25.3414	-10.065	657.916
-16.3414	-10.065	273.058
-7.341423	-10.065	66.2855
1.658577	-10.065	386.392
10.6586	-10.065	0.000000
19.6586	-10.065	123.26
-36.3414	-9.065000	845.022
-27.3414	-9.065000	931.759
-18.3414	-9.065000	140.027
-9.341423	-9.065000	266.37
-0.341423	-9.065000	351.008
8.658577	-9.065000	29.7746
17.6586	-9.065000	292.629
-38.3414	-8.065000	656.274
-29.3414	-8.065000	760.73
-20.3414	-8.065000	112.927
-11.3414	-8.065000	647.183
-2.341423	-8.065000	57.2764
6.658577	-8.065000	710.402
15.6586	-8.065000	304.012
24.6586	-8.065000	39.699
-31.3414	-7.065000	850.715
-22.3414	-7.065000	80.6309
-13.3414	-7.065000	503.5
-4.341423	-7.065000	20.904
4.658577	-7.065000	483.48
13.6586	-7.065000	569.865
22.6586	-7.065000	260.482
-33.3414	-6.065000	967.268
-24.3414	-6.065000	1029.51
-15.3414	-6.065000	830.194
-6.341423	-6.065000	372.419
2.658577	-6.065000	231.374
11.6586	-6.065000	404.25
20.6586	-6.065000	129.466
-35.3414	-5.065000	697.06
-26.3414	-5.065000	666.718
-17.3414	-5.065000	38.1471
-8.341423	-5.065000	670.865
0.658577	-5.065000	279.605
9.658577	-5.065000	151.505
18.6586	-5.065000	234.767
-37.3414	-4.065000	630.232
-28.3414	-4.065000	420.389
-19.3414	-4.065000	290.948
-10.3414	-4.065000	468.688
-1.341423	-4.065000	69.3693
7.658577	-4.065000	654.293
16.6586	-4.065000	421.422
-39.3414	-3.065000	0.000000
-30.3414	-3.065000	1031.8
-21.3414	-3.065000	823.5
-12.3414	-3.065000	433
-3.341423	-3.065000	97.9775
5.658577	-3.065000	238.13
14.6586	-3.065000	994.182
23.6586	-3.065000	149.545
-32.3414	-2.065000	25.9014
-23.3414	-2.065000	880.332
-14.3414	-2.065000	808.042
-5.341423	-2.065000	463.676
3.658577	-2.065000	309.262
12.6586	-2.065000	636.07
21.6586	-2.065000	33.0435
-34.3414	-1.065000	53.6384
-25.3414	-1.065000	727.993
-16.3414	-1.065000	245.035
-7.341423	-1.065000	241.422
1.658577	-1.065000	1082.01
10.6586	-1.065000	493.405
19.6586	-1.065000	561.717
-36.3414	-0.065000	19.1851
-27.3414	-0.065000	5.165654
-18.3414	-0.065000	518.978
-9.341423	-0.065000	243.902
-0.341423	-0.065000	1081.87
8.658577	-0.065000	488.862
17.6586	-0.065000	460.92
-38.3414	0.935000	7.298667
-29.3414	0.935000	14.4676
-20.3414	0.935000	307.088
-11.3414	0.935000	661.038
-2.341423	0.935000	868.195
6.658577	0.935000	836.212
15.6586	0.935000	497.175
24.6586	0.935000	195.39
-31.3414	1.935000	554.962
-22.3414	1.935000	734.268
-13.3414	1.935000	1043.47
-4.341423	1.935000	978.192
4.658577	1.935000	226.417
13.6586	1.935000	901.724
22.6586	1.935000	941.866
-33.3414	2.935000	168.006
-24.3414	2.935000	190.008
-15.3414	2.935000	13.6707
-6.341423	2.935000	555.176
2.658577	2.935000	393.763
11.6586	2.935000	655.612
20.6586	2.935000	222.754
-35.3414	3.935000	436.783
-26.3414	3.935000	767.267
-17.3414	3.935000	582.803
-8.341423	3.935000	227.617
0.658577	3.935000	1124.97
9.658577	3.935000	1015.61
18.6586	3.935000	1007.68
-37.3414	4.935000	975.924
-28.3414	4.935000	308.917
-19.3414	4.935000	791.369
-10.3414	4.935000	487.004
-1.341423	4.935000	951.93
7.658577	4.935000	673.731
16.6586	4.935000	807.962
-39.3414	5.935000	1077.34
-30.3414	5.935000	83.4262
-21.3414	5.935000	109.437
-12.3414	5.935000	194.506
-3.341423	5.935000	824.4
5.658577	5.935000	289.431
14.6586	5.935000	820.533
23.6586	5.935000	463.006
-32.3414	6.935000	745.388
-23.3414	6.935000	282.33
-14.3414	6.935000	632.39
-5.341423	6.935000	203.365
3.658577	6.935000	124.692
12.6586	6.935000	926.052
21.6586	6.935000	1179.5
-34.3414	7.935000	809.732
-25.3414	7.935000	495.455
-16.3414	7.935000	731.201
-7.341423	7.935000	371.878
1.658577	7.935000	793.213
10.6586	7.935000	796.029
19.6586	7.935000	45.6323
-36.3414	8.935000	878.868
-27.3414	8.935000	505.423
-18.3414	8.935000	553.218
-9.341423	8.935000	328.423
-0.341423	8.935000	1054.18
8.658577	8.935000	188.324
17.6586	8.935000	720.388
-38.3414	9.935000	773.8
-29.3414	9.935000	895.914
-20.3414	9.935000	504.009
-11.3414	9.935000	261.932
-2.341423	9.935000	591.668
6.658577	9.935000	74.2414
15.6586	9.935000	7.203486
24.6586	9.935000	26.1689
-31.3414	10.935	1068.92
-22.3414	10.935	617.724
-13.3414	10.935	696.078
-4.341423	10.935	918.16
4.658577	10.935	130.596
13.6586	10.935	40.1708
22.6586	10.935	465.901
-33.3414	11.935	563.432
-24.3414	11.935	33.5277
-15.3414	11.935	918
-6.341423	11.935	433.936
2.658577	11.935	306.515
11.6586	11.935	487.383
20.6586	11.935	135.995
-35.3414	12.935	787.912
-26.3414	12.935	131.854
-17.3414	12.935	506.248
-8.341423	12.935	195.82
0.658577	12.935	531.575
9.658577	12.935	669.474
18.6586	12.935	0.000000
-37.3414	13.935	906.844
-28.3414	13.935	586.992
-19.3414	13.935	482.446
-10.3414	13.935	90.4743
-1.341423	13.935	372.274
7.658577	13.935	821.567
16.6586	13.935	3.053999
-39.3414	14.935	1125.64
-30.3414	14.935	694.125
-21.3414	14.935	786.829
-12.3414	14.935	698.918
-3.341423	14.935	329.324
5.658577	14.935	127.885
14.6586	14.935	2.512001
23.6586	14.935	0.000000
-32.3414	15.935	832.868
-23.3414	15.935	33.4763
-14.3414	15.935	1163.96
-5.341423	15.935	69.3058
3.658577	15.935	261.005
12.6586	15.935	361.264
21.6586	15.935	6.413437
24.6586	15.935	0.921370

File: D pos.txt
#XList		#YList		#IList
-39.3414	-21.065	1357.72
-30.3414	-21.065	1355.11
-21.3414	-21.065	1354.54
-12.3414	-21.065	1352.11
-3.341423	-21.065	1357.95
5.658577	-21.065	1357.89
14.6586	-21.065	1352.03
23.6586	-21.065	1354.26
-32.3414	-20.065	1352.57
-23.3414	-20.065	1353.63
-14.3414	-20.065	1352.61
-5.341423	-20.065	1353.33
3.658577	-20.065	1356.23
12.6586	-20.065	1352.72
21.6586	-20.065	1353.33
-34.3414	-19.065	1355.97
-25.3414	-19.065	1353.05
-16.3414	-19.065	1351.79
-7.341423	-19.065	1352.95
1.658577	-19.065	1356.98
10.6586	-19.065	1354.49
19.6586	-19.065	1352.57
-36.3414	-18.065	1356.02
-27.3414	-18.065	1353.35
-18.3414	-18.065	1351.23
-9.341423	-18.065	1354.3
-0.341423	-18.065	1353.67
8.658577	-18.065	1354.6
17.6586	-18.065	1353.62
-38.3414	-17.065	1355.26
-29.3414	-17.065	1353.66
-20.3414	-17.065	1351.91
-11.3414	-17.065	1354.34
-2.341423	-17.065	1355.41
6.658577	-17.065	1354.11
15.6586	-17.065	1353.59
24.6586	-17.065	1352.27
-31.3414	-16.065	1353.82
-22.3414	-16.065	1353.81
-13.3414	-16.065	1353.13
-4.341423	-16.065	1354.32
4.658577	-16.065	1358.99
13.6586	-16.065	1352.88
22.6586	-16.065	1353.53
-33.3414	-15.065	1354.25
-24.3414	-15.065	1353.08
-15.3414	-15.065	1352.73
-6.341423	-15.065	1354
2.658577	-15.065	1353.56
11.6586	-15.065	1352.86
20.6586	-15.065	1355.49
-35.3414	-14.065	1353.16
-26.3414	-14.065	1353.92
-17.3414	-14.065	1352.59
-8.341423	-14.065	1353.34
0.658577	-14.065	1354.63
9.658577	-14.065	1354.91
18.6586	-14.065	1355.83
-37.3414	-13.065	1353.82
-28.3414	-13.065	1354.31
-19.3414	-13.065	1352.94
-10.3414	-13.065	1353.81
-1.341423	-13.065	1356.97
7.658577	-13.065	1354.58
16.6586	-13.065	1353.33
-39.3414	-12.065	1354.23
-30.3414	-12.065	1353.93
-21.3414	-12.065	1353.69
-12.3414	-12.065	1352.57
-3.341423	-12.065	1354.23
5.658577	-12.065	1357.34
14.6586	-12.065	1354.02
23.6586	-12.065	1355.21
-32.3414	-11.065	1353.11
-23.3414	-11.065	1353
-14.3414	-11.065	1355.43
-5.341423	-11.065	1354.01
3.658577	-11.065	1358.24
12.6586	-11.065	1359.79
21.6586	-11.065	1355.44
-34.3414	-10.065	1353.75
-25.3414	-10.065	1354.82
-16.3414	-10.065	1355.27
-7.341423	-10.065	1357.62
1.658577	-10.065	1354.1
10.6586	-10.065	1378.55
19.6586	-10.065	1353.16
-36.3414	-9.065000	1353.54
-27.3414	-9.065000	1354.08
-18.3414	-9.065000	1352.46
-9.341423	-9.065000	1356.33
-0.341423	-9.065000	1356.21
8.658577	-9.065000	1350.69
17.6586	-9.065000	1356.42
-38.3414	-8.065000	1353.76
-29.3414	-8.065000	1352.95
-20.3414	-8.065000	1358.23
-11.3414	-8.065000	1353.35
-2.341423	-8.065000	1355.76
6.658577	-8.065000	1352.56
15.6586	-8.065000	1354.2
24.6586	-8.065000	1353.67
-31.3414	-7.065000	1353.86
-22.3414	-7.065000	1357.94
-13.3414	-7.065000	1352.62
-4.341423	-7.065000	1352.92
4.658577	-7.065000	1353.86
13.6586	-7.065000	1352.21
22.6586	-7.065000	1353.3
-33.3414	-6.065000	1353.67
-24.3414	-6.065000	1353.11
-15.3414	-6.065000	1353.92
-6.341423	-6.065000	1354.88
2.658577	-6.065000	1355.3
11.6586	-6.065000	1356.47
20.6586	-6.065000	1356.14
-35.3414	-5.065000	1353.75
-26.3414	-5.065000	1353.11
-17.3414	-5.065000	1359.56
-8.341423	-5.065000	1355.06
0.658577	-5.065000	1353.71
9.658577	-5.065000	1356.68
18.6586	-5.065000	1354.24
-37.3414	-4.065000	1352.45
-28.3414	-4.065000	1354.33
-19.3414	-4.065000	1354.2
-10.3414	-4.065000	1356.5
-1.341423	-4.065000	1354.75
7.658577	-4.065000	1352.74
16.6586	-4.065000	1353.69
-39.3414	-3.065000	1379.69
-30.3414	-3.065000	1353.93
-21.3414	-3.065000	1353.42
-12.3414	-3.065000	1355.08
-3.341423	-3.065000	1355.17
5.658577	-3.065000	1355.73
14.6586	-3.065000	1353.12
23.6586	-3.065000	1355.47
-32.3414	-2.065000	1355.34
-23.3414	-2.065000	1354.31
-14.3414	-2.065000	1354.72
-5.341423	-2.065000	1355.52
3.658577	-2.065000	1351.42
12.6586	-2.065000	1354.67
21.6586	-2.065000	1352.34
-34.3414	-1.065000	1362.05
-25.3414	-1.065000	1352.75
-16.3414	-1.065000	1355.8
-7.341423	-1.065000	1356.41
1.658577	-1.065000	1352.38
10.6586	-1.065000	1352.63
19.6586	-1.065000	1352.71
-36.3414	-0.065000	1361.16
-27.3414	-0.065000	1378.62
-18.3414	-0.065000	1353.98
-9.341423	-0.065000	1356.26
-0.341423	-0.065000	1351.52
8.658577	-0.065000	1355.43
17.6586	-0.065000	1353.97
-38.3414	0.935000	1354.58
-29.3414	0.935000	1353.02
-20.3414	0.935000	1354.88
-11.3414	0.935000	1355.32
-2.341423	0.935000	1352.55
6.658577	0.935000	1354.38
15.6586	0.935000	1354.17
24.6586	0.935000	1355.37
-31.3414	1.935000	1353.83
-22.3414	1.935000	1353.01
-13.3414	1.935000	1355.13
-4.341423	1.935000	1353.42
4.658577	1.935000	1357.31
13.6586	1.935000	1352.99
22.6586	1.935000	1351.71
-33.3414	2.935000	1357.09
-24.3414	2.935000	1355.77
-15.3414	2.935000	1362.85
-6.341423	2.935000	1354.77
2.658577	2.935000	1354.83
11.6586	2.935000	1352.64
20.6586	2.935000	1353.84
-35.3414	3.935000	1355.01
-26.3414	3.935000	1354.36
-17.3414	3.935000	1352.83
-8.341423	3.935000	1358.5
0.658577	3.935000	1352.34
9.658577	3.935000	1352.48
18.6586	3.935000	1352.71
-37.3414	4.935000	1354.7
-28.3414	4.935000	1354.32
-19.3414	4.935000	1352.98
-10.3414	4.935000	1355.9
-1.341423	4.935000	1352.23
7.658577	4.935000	1353.73
16.6586	4.935000	1351.99
-39.3414	5.935000	1354.92
-30.3414	5.935000	1354.8
-21.3414	5.935000	1354.63
-12.3414	5.935000	1354.59
-3.341423	5.935000	1352.86
5.658577	5.935000	1354.88
14.6586	5.935000	1353.23
23.6586	5.935000	1354.53
-32.3414	6.935000	1353.98
-23.3414	6.935000	1354.32
-14.3414	6.935000	1355.38
-5.341423	6.935000	1355.19
3.658577	6.935000	1356.1
12.6586	6.935000	1353.69
21.6586	6.935000	1352.65
-34.3414	7.935000	1354.49
-25.3414	7.935000	1354.58
-16.3414	7.935000	1354.22
-7.341423	7.935000	1353.65
1.658577	7.935000	1353.61
10.6586	7.935000	1353.65
19.6586	7.935000	1358
-36.3414	8.935000	1353.94
-27.3414	8.935000	1355.41
-18.3414	8.935000	1354.91
-9.341423	8.935000	1354.67
-0.341423	8.935000	1353.45
8.658577	8.935000	1355.25
17.6586	8.935000	1353.18
-38.3414	9.935000	1354.07
-29.3414	9.935000	1354.41
-20.3414	9.935000	1353.55
-11.3414	9.935000	1352.53
-2.341423	9.935000	1354.04
6.658577	9.935000	1358.93
15.6586	9.935000	1374.17
24.6586	9.935000	1359.35
-31.3414	10.935	1354.63
-22.3414	10.935	1352.95
-13.3414	10.935	1354.9
-4.341423	10.935	1352.2
4.658577	10.935	1355.63
13.6586	10.935	1356.44
22.6586	10.935	1352.19
-33.3414	11.935	1354.14
-24.3414	11.935	1356.36
-15.3414	11.935	1354.61
-6.341423	11.935	1353.27
2.658577	11.935	1355.75
11.6586	11.935	1355.18
20.6586	11.935	1353.08
-35.3414	12.935	1354.13
-26.3414	12.935	1351.22
-17.3414	12.935	1353.48
-8.341423	12.935	1354.85
0.658577	12.935	1355.36
9.658577	12.935	1352.9
18.6586	12.935	1360.01
-37.3414	13.935	1354.1
-28.3414	13.935	1352.72
-19.3414	13.935	1353.55
-10.3414	13.935	1354.5
-1.341423	13.935	1353.75
7.658577	13.935	1351.66
16.6586	13.935	1379.18
-39.3414	14.935	1354.25
-30.3414	14.935	1354.1
-21.3414	14.935	1354.61
-12.3414	14.935	1353.58
-3.341423	14.935	1353.34
5.658577	14.935	1354.25
14.6586	14.935	1369.58
23.6586	14.935	1347
-32.3414	15.935	1354.65
-23.3414	15.935	1352.31
-14.3414	15.935	1353.15
-5.341423	15.935	1358.53
3.658577	15.935	1352.99
12.6586	15.935	1354.21
21.6586	15.935	1356.93
24.6586	15.935	1380