Folder: graphene-production/data/derived_data/raman/20170920_Gr-NH2_for_Radisurf/20170920 Gr-NH for Radisurf map 2 (part 2)

File: 2Dp FWHM.txt
#XList		#YList		#IList
-39.3414	-21.065	147.954
-30.3414	-21.065	130.145
-21.3414	-21.065	146.601
-12.3414	-21.065	133.075
-3.341423	-21.065	103.961
5.658577	-21.065	193.341
14.6586	-21.065	118.87
23.6586	-21.065	2552.78
-32.3414	-20.065	0.639823
-23.3414	-20.065	158.642
-14.3414	-20.065	128.267
-5.341423	-20.065	98.7108
3.658577	-20.065	165.914
12.6586	-20.065	135.56
21.6586	-20.065	106.294
-34.3414	-19.065	89.1576
-25.3414	-19.065	130.265
-16.3414	-19.065	120.541
-7.341423	-19.065	119.714
1.658577	-19.065	179.71
10.6586	-19.065	187.658
19.6586	-19.065	111.326
-36.3414	-18.065	178.531
-27.3414	-18.065	137.602
-18.3414	-18.065	109.549
-9.341423	-18.065	152.698
-0.341423	-18.065	145.695
8.658577	-18.065	0.639823
17.6586	-18.065	147.808
-38.3414	-17.065	117.386
-29.3414	-17.065	129.551
-20.3414	-17.065	131.173
-11.3414	-17.065	102.732
-2.341423	-17.065	162.099
6.658577	-17.065	129.731
15.6586	-17.065	115.528
24.6586	-17.065	114.474
-31.3414	-16.065	113.861
-22.3414	-16.065	158.658
-13.3414	-16.065	0.639823
-4.341423	-16.065	147.234
4.658577	-16.065	143.047
13.6586	-16.065	112.815
22.6586	-16.065	132.585
-33.3414	-15.065	0.639823
-24.3414	-15.065	134.141
-15.3414	-15.065	124.047
-6.341423	-15.065	123.753
2.658577	-15.065	157.035
11.6586	-15.065	112.986
20.6586	-15.065	97.3522
-35.3414	-14.065	136.793
-26.3414	-14.065	126.168
-17.3414	-14.065	89.0141
-8.341423	-14.065	170.847
0.658577	-14.065	159.637
9.658577	-14.065	135.467
18.6586	-14.065	36.9719
-37.3414	-13.065	130.263
-28.3414	-13.065	139.613
-19.3414	-13.065	161.174
-10.3414	-13.065	135.996
-1.341423	-13.065	169.974
7.658577	-13.065	124.122
16.6586	-13.065	135.285
-39.3414	-12.065	140.389
-30.3414	-12.065	132.473
-21.3414	-12.065	191.197
-12.3414	-12.065	137.284
-3.341423	-12.065	152.915
5.658577	-12.065	141.603
14.6586	-12.065	101.624
23.6586	-12.065	162.087
-32.3414	-11.065	131.03
-23.3414	-11.065	120.975
-14.3414	-11.065	163.609
-5.341423	-11.065	128.639
3.658577	-11.065	190.076
12.6586	-11.065	125.698
21.6586	-11.065	215.727
-34.3414	-10.065	127.108
-25.3414	-10.065	124.986
-16.3414	-10.065	154.786
-7.341423	-10.065	213.941
1.658577	-10.065	140.276
10.6586	-10.065	2595.12
19.6586	-10.065	174.351
-36.3414	-9.065000	117.301
-27.3414	-9.065000	118.198
-18.3414	-9.065000	171.753
-9.341423	-9.065000	97.3245
-0.341423	-9.065000	125.538
8.658577	-9.065000	122.604
17.6586	-9.065000	161.343
-38.3414	-8.065000	138.995
-29.3414	-8.065000	133.989
-20.3414	-8.065000	200.689
-11.3414	-8.065000	138.745
-2.341423	-8.065000	127.048
6.658577	-8.065000	116.299
15.6586	-8.065000	110.117
24.6586	-8.065000	68.1147
-31.3414	-7.065000	147.273
-22.3414	-7.065000	72.8383
-13.3414	-7.065000	135.519
-4.341423	-7.065000	692.483
4.658577	-7.065000	122.708
13.6586	-7.065000	97.2057
22.6586	-7.065000	139.711
-33.3414	-6.065000	129.792
-24.3414	-6.065000	0.639823
-15.3414	-6.065000	145.887
-6.341423	-6.065000	157.523
2.658577	-6.065000	141.209
11.6586	-6.065000	142.002
20.6586	-6.065000	188.158
-35.3414	-5.065000	134.823
-26.3414	-5.065000	121.111
-17.3414	-5.065000	43.3232
-8.341423	-5.065000	130.752
0.658577	-5.065000	140.995
9.658577	-5.065000	125.733
18.6586	-5.065000	161.154
-37.3414	-4.065000	114.16
-28.3414	-4.065000	112.797
-19.3414	-4.065000	99.3392
-10.3414	-4.065000	118.662
-1.341423	-4.065000	101.875
7.658577	-4.065000	123.166
16.6586	-4.065000	97.4164
-39.3414	-3.065000	0.639823
-30.3414	-3.065000	0.639823
-21.3414	-3.065000	121.846
-12.3414	-3.065000	149.519
-3.341423	-3.065000	102.273
5.658577	-3.065000	145.92
14.6586	-3.065000	114.073
23.6586	-3.065000	186.949
-32.3414	-2.065000	29.9436
-23.3414	-2.065000	0.639823
-14.3414	-2.065000	115.06
-5.341423	-2.065000	138.5
3.658577	-2.065000	104.087
12.6586	-2.065000	128.677
21.6586	-2.065000	37.3636
-34.3414	-1.065000	169.142
-25.3414	-1.065000	126.269
-16.3414	-1.065000	118.053
-7.341423	-1.065000	150.909
1.658577	-1.065000	110.519
10.6586	-1.065000	149.967
19.6586	-1.065000	122.858
-36.3414	-0.065000	124.077
-27.3414	-0.065000	1623.23
-18.3414	-0.065000	109.232
-9.341423	-0.065000	154.385
-0.341423	-0.065000	0.639823
8.658577	-0.065000	111.271
17.6586	-0.065000	153.494
-38.3414	0.935000	1059.14
-29.3414	0.935000	185.755
-20.3414	0.935000	103.818
-11.3414	0.935000	0.639823
-2.341423	0.935000	127.039
6.658577	0.935000	0.639823
15.6586	0.935000	115.832
24.6586	0.935000	161.391
-31.3414	1.935000	146.908
-22.3414	1.935000	125.412
-13.3414	1.935000	143.196
-4.341423	1.935000	0.639823
4.658577	1.935000	154.548
13.6586	1.935000	0.639823
22.6586	1.935000	119.891
-33.3414	2.935000	143.037
-24.3414	2.935000	215.416
-15.3414	2.935000	144.662
-6.341423	2.935000	134.893
2.658577	2.935000	137.112
11.6586	2.935000	113.128
20.6586	2.935000	122.989
-35.3414	3.935000	146.608
-26.3414	3.935000	139.718
-17.3414	3.935000	148.489
-8.341423	3.935000	130.397
0.658577	3.935000	131.105
9.658577	3.935000	104.646
18.6586	3.935000	0.639823
-37.3414	4.935000	0.639823
-28.3414	4.935000	102.657
-19.3414	4.935000	129.528
-10.3414	4.935000	133.015
-1.341423	4.935000	111.189
7.658577	4.935000	127.222
16.6586	4.935000	118.594
-39.3414	5.935000	132.67
-30.3414	5.935000	25.97
-21.3414	5.935000	197.635
-12.3414	5.935000	95.7588
-3.341423	5.935000	122.994
5.658577	5.935000	129.637
14.6586	5.935000	125.824
23.6586	5.935000	145.05
-32.3414	6.935000	108.037
-23.3414	6.935000	125.15
-14.3414	6.935000	136.38
-5.341423	6.935000	101.367
3.658577	6.935000	113.044
12.6586	6.935000	113.054
21.6586	6.935000	105.52
-34.3414	7.935000	142.225
-25.3414	7.935000	139.708
-16.3414	7.935000	122.868
-7.341423	7.935000	156.285
1.658577	7.935000	112.189
10.6586	7.935000	0.639823
19.6586	7.935000	98.4957
-36.3414	8.935000	125.953
-27.3414	8.935000	157.969
-18.3414	8.935000	155.256
-9.341423	8.935000	173.681
-0.341423	8.935000	0.639823
8.658577	8.935000	144.048
17.6586	8.935000	103.384
-38.3414	9.935000	163.061
-29.3414	9.935000	108.468
-20.3414	9.935000	120.691
-11.3414	9.935000	130.016
-2.341423	9.935000	112.263
6.658577	9.935000	252.78
15.6586	9.935000	2379.09
24.6586	9.935000	142.583
-31.3414	10.935	133.351
-22.3414	10.935	127.906
-13.3414	10.935	138.674
-4.341423	10.935	116.726
4.658577	10.935	180.851
13.6586	10.935	32.4031
22.6586	10.935	117.926
-33.3414	11.935	139.426
-24.3414	11.935	1103.55
-15.3414	11.935	108.557
-6.341423	11.935	150.6
2.658577	11.935	175.795
11.6586	11.935	151.095
20.6586	11.935	127.437
-35.3414	12.935	116.088
-26.3414	12.935	75.8871
-17.3414	12.935	113.674
-8.341423	12.935	183.75
0.658577	12.935	119.22
9.658577	12.935	137.242
18.6586	12.935	7.532866
-37.3414	13.935	137.616
-28.3414	13.935	127.037
-19.3414	13.935	153.139
-10.3414	13.935	145.297
-1.341423	13.935	137.239
7.658577	13.935	112.713
16.6586	13.935	0.639823
-39.3414	14.935	0.639823
-30.3414	14.935	121.391
-21.3414	14.935	122.012
-12.3414	14.935	104.454
-3.341423	14.935	128.235
5.658577	14.935	89.2264
14.6586	14.935	2595.12
23.6586	14.935	0.639823
-32.3414	15.935	126.193
-23.3414	15.935	36.4546
-14.3414	15.935	0.639823
-5.341423	15.935	108.599
3.658577	15.935	96.3339
12.6586	15.935	86.9977
21.6586	15.935	2595.12
24.6586	15.935	1089.63

File: 2Dp int.txt
#XList		#YList		#IList
-39.3414	-21.065	31.9634
-30.3414	-21.065	96.449
-21.3414	-21.065	21.0705
-12.3414	-21.065	96.3615
-3.341423	-21.065	8.119543
5.658577	-21.065	13.5335
14.6586	-21.065	44.2822
23.6586	-21.065	5.275904
-32.3414	-20.065	0.000000
-23.3414	-20.065	16.1716
-14.3414	-20.065	97.9376
-5.341423	-20.065	37.3389
3.658577	-20.065	16.8594
12.6586	-20.065	39.8267
21.6586	-20.065	30.7226
-34.3414	-19.065	2.056803
-25.3414	-19.065	52.3248
-16.3414	-19.065	134.843
-7.341423	-19.065	51.6832
1.658577	-19.065	21.0917
10.6586	-19.065	25.0926
19.6586	-19.065	66.9766
-36.3414	-18.065	36.2065
-27.3414	-18.065	65.4761
-18.3414	-18.065	32.072
-9.341423	-18.065	55.4023
-0.341423	-18.065	33.9858
8.658577	-18.065	20.1801
17.6586	-18.065	45.7337
-38.3414	-17.065	86.0862
-29.3414	-17.065	58.9294
-20.3414	-17.065	12.6354
-11.3414	-17.065	70.4419
-2.341423	-17.065	32.633
6.658577	-17.065	45.859
15.6586	-17.065	82.4621
24.6586	-17.065	58.1701
-31.3414	-16.065	82.1999
-22.3414	-16.065	49.8721
-13.3414	-16.065	0.000000
-4.341423	-16.065	53.9824
4.658577	-16.065	14.0943
13.6586	-16.065	10.3607
22.6586	-16.065	39.7803
-33.3414	-15.065	21.6449
-24.3414	-15.065	66.7572
-15.3414	-15.065	104.787
-6.341423	-15.065	32.8529
2.658577	-15.065	25.1204
11.6586	-15.065	75.6957
20.6586	-15.065	12.3372
-35.3414	-14.065	137.648
-26.3414	-14.065	80.1383
-17.3414	-14.065	23.2016
-8.341423	-14.065	20.16
0.658577	-14.065	57.4948
9.658577	-14.065	100.662
18.6586	-14.065	11.844
-37.3414	-13.065	146.155
-28.3414	-13.065	65.8031
-19.3414	-13.065	25.1257
-10.3414	-13.065	36.1583
-1.341423	-13.065	33.6275
7.658577	-13.065	103.343
16.6586	-13.065	20.271
-39.3414	-12.065	125.632
-30.3414	-12.065	117.235
-21.3414	-12.065	18.2235
-12.3414	-12.065	31.7882
-3.341423	-12.065	38.817
5.658577	-12.065	26.2918
14.6586	-12.065	31.8847
23.6586	-12.065	53.5311
-32.3414	-11.065	104.563
-23.3414	-11.065	45.8474
-14.3414	-11.065	26.1542
-5.341423	-11.065	20.6968
3.658577	-11.065	12.7833
12.6586	-11.065	3.102764
21.6586	-11.065	14.5414
-34.3414	-10.065	111.956
-25.3414	-10.065	70.8775
-16.3414	-10.065	39.011
-7.341423	-10.065	8.514418
1.658577	-10.065	54.7713
10.6586	-10.065	1.790840
19.6586	-10.065	19.73
-36.3414	-9.065000	137.608
-27.3414	-9.065000	141.584
-18.3414	-9.065000	21.9916
-9.341423	-9.065000	44.2141
-0.341423	-9.065000	48.4186
8.658577	-9.065000	1.888734
17.6586	-9.065000	46.8644
-38.3414	-8.065000	121.276
-29.3414	-8.065000	110.47
-20.3414	-8.065000	15.944
-11.3414	-8.065000	98.2315
-2.341423	-8.065000	4.266478
6.658577	-8.065000	54.6902
15.6586	-8.065000	34.2787
24.6586	-8.065000	5.221777
-31.3414	-7.065000	134.858
-22.3414	-7.065000	5.959353
-13.3414	-7.065000	58.9786
-4.341423	-7.065000	3.448789
4.658577	-7.065000	48.8151
13.6586	-7.065000	53.3786
22.6586	-7.065000	32.7186
-33.3414	-6.065000	157.701
-24.3414	-6.065000	0.000000
-15.3414	-6.065000	127.932
-6.341423	-6.065000	53.5968
2.658577	-6.065000	22.7754
11.6586	-6.065000	50.9622
20.6586	-6.065000	19.6003
-35.3414	-5.065000	102.155
-26.3414	-5.065000	67.6258
-17.3414	-5.065000	4.613028
-8.341423	-5.065000	113.057
0.658577	-5.065000	20.0318
9.658577	-5.065000	19.7617
18.6586	-5.065000	34.3145
-37.3414	-4.065000	51.5133
-28.3414	-4.065000	40.0629
-19.3414	-4.065000	31.0895
-10.3414	-4.065000	77.7574
-1.341423	-4.065000	10.9114
7.658577	-4.065000	52.9925
16.6586	-4.065000	36.5633
-39.3414	-3.065000	13.0033
-30.3414	-3.065000	20.9954
-21.3414	-3.065000	67.0198
-12.3414	-3.065000	64.6516
-3.341423	-3.065000	12.7749
5.658577	-3.065000	22.7744
14.6586	-3.065000	91.6732
23.6586	-3.065000	15.1561
-32.3414	-2.065000	8.623542
-23.3414	-2.065000	0.000000
-14.3414	-2.065000	130.64
-5.341423	-2.065000	70.6239
3.658577	-2.065000	22.424
12.6586	-2.065000	74.4358
21.6586	-2.065000	4.206266
-34.3414	-1.065000	6.795106
-25.3414	-1.065000	87.7767
-16.3414	-1.065000	29.893
-7.341423	-1.065000	40.9616
1.658577	-1.065000	93.5234
10.6586	-1.065000	32.1243
19.6586	-1.065000	48.416
-36.3414	-0.065000	2.325728
-27.3414	-0.065000	1.968215
-18.3414	-0.065000	53.9845
-9.341423	-0.065000	48.2151
-0.341423	-0.065000	0.000000
8.658577	-0.065000	59.6171
17.6586	-0.065000	60.8101
-38.3414	0.935000	5.552762
-29.3414	0.935000	1.586755
-20.3414	0.935000	29.9881
-11.3414	0.935000	0.000000
-2.341423	0.935000	106.912
6.658577	0.935000	0.000000
15.6586	0.935000	76.3341
24.6586	0.935000	27.5503
-31.3414	1.935000	50.0523
-22.3414	1.935000	97.5885
-13.3414	1.935000	173.1
-4.341423	1.935000	0.000000
4.658577	1.935000	41.5545
13.6586	1.935000	329.843
22.6586	1.935000	72.2352
-33.3414	2.935000	24.7495
-24.3414	2.935000	38.1666
-15.3414	2.935000	3.700463
-6.341423	2.935000	75.8814
2.658577	2.935000	56.6184
11.6586	2.935000	77.3581
20.6586	2.935000	23.8131
-35.3414	3.935000	55.3513
-26.3414	3.935000	87.1579
-17.3414	3.935000	65.5581
-8.341423	3.935000	40.716
0.658577	3.935000	115.092
9.658577	3.935000	111.938
18.6586	3.935000	0.000000
-37.3414	4.935000	0.000000
-28.3414	4.935000	37.6774
-19.3414	4.935000	99.6865
-10.3414	4.935000	69.9328
-1.341423	4.935000	75.9545
7.658577	4.935000	89.6608
16.6586	4.935000	78.6255
-39.3414	5.935000	185.399
-30.3414	5.935000	10.9757
-21.3414	5.935000	13.3935
-12.3414	5.935000	16.6585
-3.341423	5.935000	70.6575
5.658577	5.935000	36.5856
14.6586	5.935000	95.956
23.6586	5.935000	80.3773
-32.3414	6.935000	111.963
-23.3414	6.935000	38.0825
-14.3414	6.935000	108.839
-5.341423	6.935000	26.005
3.658577	6.935000	10.7304
12.6586	6.935000	111.205
21.6586	6.935000	106.628
-34.3414	7.935000	139.641
-25.3414	7.935000	56.2001
-16.3414	7.935000	95.9419
-7.341423	7.935000	23.887
1.658577	7.935000	72.902
10.6586	7.935000	0.000000
19.6586	7.935000	4.178961
-36.3414	8.935000	113.061
-27.3414	8.935000	58.1817
-18.3414	8.935000	70.6753
-9.341423	8.935000	22.1336
-0.341423	8.935000	0.000000
8.658577	8.935000	17.1039
17.6586	8.935000	55.7406
-38.3414	9.935000	109.509
-29.3414	9.935000	112.454
-20.3414	9.935000	51.0133
-11.3414	9.935000	31.757
-2.341423	9.935000	63.9755
6.658577	9.935000	12.9221
15.6586	9.935000	1.145085
24.6586	9.935000	3.644836
-31.3414	10.935	153.709
-22.3414	10.935	48.6252
-13.3414	10.935	79.337
-4.341423	10.935	86.8854
4.658577	10.935	14.7847
13.6586	10.935	6.115962
22.6586	10.935	28.3911
-33.3414	11.935	80.1847
-24.3414	11.935	3.716593
-15.3414	11.935	122.079
-6.341423	11.935	35.8908
2.658577	11.935	48.4521
11.6586	11.935	84.5003
20.6586	11.935	6.546557
-35.3414	12.935	122.457
-26.3414	12.935	8.423818
-17.3414	12.935	31.1162
-8.341423	12.935	22.38
0.658577	12.935	69.9037
9.658577	12.935	94.037
18.6586	12.935	2.736349
-37.3414	13.935	152.905
-28.3414	13.935	43.781
-19.3414	13.935	81.448
-10.3414	13.935	11.3619
-1.341423	13.935	33.3972
7.658577	13.935	71.8767
16.6586	13.935	8.339131
-39.3414	14.935	0.000000
-30.3414	14.935	97.6912
-21.3414	14.935	102.955
-12.3414	14.935	56.876
-3.341423	14.935	30.4808
5.658577	14.935	10.5705
14.6586	14.935	2.601676
23.6586	14.935	3.941494
-32.3414	15.935	126.307
-23.3414	15.935	7.404376
-14.3414	15.935	0.000000
-5.341423	15.935	7.819446
3.658577	15.935	18.3965
12.6586	15.935	23.4866
21.6586	15.935	1.812185
24.6586	15.935	2.471809

File: 2Dp pos.txt
#XList		#YList		#IList
-39.3414	-21.065	3175.49
-30.3414	-21.065	3160.85
-21.3414	-21.065	3171.58
-12.3414	-21.065	3164.48
-3.341423	-21.065	3161.39
5.658577	-21.065	3177.28
14.6586	-21.065	3166.15
23.6586	-21.065	3100
-32.3414	-20.065	3350
-23.3414	-20.065	3164.04
-14.3414	-20.065	3157.08
-5.341423	-20.065	3175.87
3.658577	-20.065	3154.05
12.6586	-20.065	3164.81
21.6586	-20.065	3168.1
-34.3414	-19.065	3199.8
-25.3414	-19.065	3161.51
-16.3414	-19.065	3161
-7.341423	-19.065	3173.51
1.658577	-19.065	3175.22
10.6586	-19.065	3178.62
19.6586	-19.065	3164.11
-36.3414	-18.065	3168.08
-27.3414	-18.065	3175.7
-18.3414	-18.065	3165.34
-9.341423	-18.065	3154.56
-0.341423	-18.065	3171.7
8.658577	-18.065	3350
17.6586	-18.065	3162.54
-38.3414	-17.065	3169.47
-29.3414	-17.065	3177.93
-20.3414	-17.065	3150.64
-11.3414	-17.065	3159.4
-2.341423	-17.065	3154.62
6.658577	-17.065	3170.63
15.6586	-17.065	3165.78
24.6586	-17.065	3161.57
-31.3414	-16.065	3164.38
-22.3414	-16.065	3156.5
-13.3414	-16.065	3323.08
-4.341423	-16.065	3164.58
4.658577	-16.065	3200.7
13.6586	-16.065	3166.63
22.6586	-16.065	3172.27
-33.3414	-15.065	3350
-24.3414	-15.065	3164.15
-15.3414	-15.065	3154.69
-6.341423	-15.065	3174.23
2.658577	-15.065	3151.69
11.6586	-15.065	3154.7
20.6586	-15.065	3180.88
-35.3414	-14.065	3161.85
-26.3414	-14.065	3168.85
-17.3414	-14.065	3169.5
-8.341423	-14.065	3178.12
0.658577	-14.065	3165.35
9.658577	-14.065	3159.01
18.6586	-14.065	3196.33
-37.3414	-13.065	3152.91
-28.3414	-13.065	3164.56
-19.3414	-13.065	3153.51
-10.3414	-13.065	3166.65
-1.341423	-13.065	3152.6
7.658577	-13.065	3161.15
16.6586	-13.065	3166.1
-39.3414	-12.065	3164.82
-30.3414	-12.065	3156.1
-21.3414	-12.065	3172.76
-12.3414	-12.065	3168.01
-3.341423	-12.065	3165.7
5.658577	-12.065	3174.95
14.6586	-12.065	3181.37
23.6586	-12.065	3153.47
-32.3414	-11.065	3152.56
-23.3414	-11.065	3156.56
-14.3414	-11.065	3159.94
-5.341423	-11.065	3166.33
3.658577	-11.065	3172.28
12.6586	-11.065	3166.46
21.6586	-11.065	3189.47
-34.3414	-10.065	3159.17
-25.3414	-10.065	3160.95
-16.3414	-10.065	3160.22
-7.341423	-10.065	3172.47
1.658577	-10.065	3158.07
10.6586	-10.065	3100
19.6586	-10.065	3181.87
-36.3414	-9.065000	3162.45
-27.3414	-9.065000	3160.64
-18.3414	-9.065000	3160.38
-9.341423	-9.065000	3169.66
-0.341423	-9.065000	3166.73
8.658577	-9.065000	3147.59
17.6586	-9.065000	3175.53
-38.3414	-8.065000	3156.77
-29.3414	-8.065000	3151.87
-20.3414	-8.065000	3167.77
-11.3414	-8.065000	3157.31
-2.341423	-8.065000	3160.93
6.658577	-8.065000	3164.36
15.6586	-8.065000	3176.97
24.6586	-8.065000	3187.38
-31.3414	-7.065000	3160.51
-22.3414	-7.065000	3170.16
-13.3414	-7.065000	3156.47
-4.341423	-7.065000	3100
4.658577	-7.065000	3168.15
13.6586	-7.065000	3173.99
22.6586	-7.065000	3163.32
-33.3414	-6.065000	3161.04
-24.3414	-6.065000	3350
-15.3414	-6.065000	3157.87
-6.341423	-6.065000	3160.68
2.658577	-6.065000	3157.46
11.6586	-6.065000	3170.57
20.6586	-6.065000	3191.43
-35.3414	-5.065000	3153.05
-26.3414	-5.065000	3164.58
-17.3414	-5.065000	3168.41
-8.341423	-5.065000	3157.01
0.658577	-5.065000	3168.11
9.658577	-5.065000	3160.96
18.6586	-5.065000	3175.1
-37.3414	-4.065000	3162.82
-28.3414	-4.065000	3149.58
-19.3414	-4.065000	3182.38
-10.3414	-4.065000	3171.97
-1.341423	-4.065000	3181.35
7.658577	-4.065000	3164.22
16.6586	-4.065000	3171.38
-39.3414	-3.065000	3349.68
-30.3414	-3.065000	3350
-21.3414	-3.065000	3157.86
-12.3414	-3.065000	3167.71
-3.341423	-3.065000	3167
5.658577	-3.065000	3151.04
14.6586	-3.065000	3155.72
23.6586	-3.065000	3167.6
-32.3414	-2.065000	3191.64
-23.3414	-2.065000	3268.11
-14.3414	-2.065000	3155.54
-5.341423	-2.065000	3156.91
3.658577	-2.065000	3178.45
12.6586	-2.065000	3158.04
21.6586	-2.065000	3262.51
-34.3414	-1.065000	3174.3
-25.3414	-1.065000	3158.94
-16.3414	-1.065000	3183.79
-7.341423	-1.065000	3162.17
1.658577	-1.065000	3158.02
10.6586	-1.065000	3152.63
19.6586	-1.065000	3168.75
-36.3414	-0.065000	3215.19
-27.3414	-0.065000	3350
-18.3414	-0.065000	3168.5
-9.341423	-0.065000	3173.42
-0.341423	-0.065000	3349.46
8.658577	-0.065000	3162.89
17.6586	-0.065000	3147.31
-38.3414	0.935000	3254.58
-29.3414	0.935000	3225.5
-20.3414	0.935000	3160.11
-11.3414	0.935000	3350
-2.341423	0.935000	3160.35
6.658577	0.935000	3343.11
15.6586	0.935000	3166.63
24.6586	0.935000	3180.7
-31.3414	1.935000	3162.59
-22.3414	1.935000	3158.06
-13.3414	1.935000	3163.55
-4.341423	1.935000	3327.68
4.658577	1.935000	3184.29
13.6586	1.935000	3100.03
22.6586	1.935000	3164.58
-33.3414	2.935000	3164.56
-24.3414	2.935000	3172.31
-15.3414	2.935000	3239.35
-6.341423	2.935000	3163.53
2.658577	2.935000	3180.76
11.6586	2.935000	3160.19
20.6586	2.935000	3144.4
-35.3414	3.935000	3159.66
-26.3414	3.935000	3158
-17.3414	3.935000	3155.49
-8.341423	3.935000	3165.73
0.658577	3.935000	3159.19
9.658577	3.935000	3162.16
18.6586	3.935000	3349.85
-37.3414	4.935000	3320.69
-28.3414	4.935000	3177.82
-19.3414	4.935000	3152.97
-10.3414	4.935000	3170.77
-1.341423	4.935000	3160.18
7.658577	4.935000	3152.12
16.6586	4.935000	3166.88
-39.3414	5.935000	3159.69
-30.3414	5.935000	3179.09
-21.3414	5.935000	3162.65
-12.3414	5.935000	3169.71
-3.341423	5.935000	3163.15
5.658577	5.935000	3170.31
14.6586	5.935000	3161.45
23.6586	5.935000	3157.28
-32.3414	6.935000	3166.42
-23.3414	6.935000	3163.3
-14.3414	6.935000	3159.14
-5.341423	6.935000	3164.72
3.658577	6.935000	3187.46
12.6586	6.935000	3160.68
21.6586	6.935000	3163.73
-34.3414	7.935000	3151.93
-25.3414	7.935000	3157.77
-16.3414	7.935000	3164.32
-7.341423	7.935000	3163.19
1.658577	7.935000	3166.12
10.6586	7.935000	3322.19
19.6586	7.935000	3173.25
-36.3414	8.935000	3149.7
-27.3414	8.935000	3165.53
-18.3414	8.935000	3157.93
-9.341423	8.935000	3183.64
-0.341423	8.935000	3348.49
8.658577	8.935000	3190.59
17.6586	8.935000	3161.68
-38.3414	9.935000	3150.06
-29.3414	9.935000	3166.13
-20.3414	9.935000	3174.23
-11.3414	9.935000	3170.83
-2.341423	9.935000	3161.42
6.658577	9.935000	3163.86
15.6586	9.935000	3100
24.6586	9.935000	3147.1
-31.3414	10.935	3156.7
-22.3414	10.935	3160.64
-13.3414	10.935	3160.9
-4.341423	10.935	3157.67
4.658577	10.935	3166.38
13.6586	10.935	3238.57
22.6586	10.935	3157.5
-33.3414	11.935	3159.72
-24.3414	11.935	3308.18
-15.3414	11.935	3171.57
-6.341423	11.935	3173.44
2.658577	11.935	3167.13
11.6586	11.935	3163.04
20.6586	11.935	3161.8
-35.3414	12.935	3158.76
-26.3414	12.935	3172.73
-17.3414	12.935	3186.65
-8.341423	12.935	3183.23
0.658577	12.935	3167.26
9.658577	12.935	3161.26
18.6586	12.935	3350
-37.3414	13.935	3155.17
-28.3414	13.935	3171.77
-19.3414	13.935	3161.87
-10.3414	13.935	3152.69
-1.341423	13.935	3152.45
7.658577	13.935	3163.3
16.6586	13.935	3195.49
-39.3414	14.935	3348.63
-30.3414	14.935	3168.09
-21.3414	14.935	3161.09
-12.3414	14.935	3164.62
-3.341423	14.935	3162.66
5.658577	14.935	3170.27
14.6586	14.935	3100
23.6586	14.935	3350
-32.3414	15.935	3154.66
-23.3414	15.935	3188.88
-14.3414	15.935	3328.41
-5.341423	15.935	3202.71
3.658577	15.935	3173.88
12.6586	15.935	3167.52
21.6586	15.935	3342.44
24.6586	15.935	3350