Folder: graphene-production/data/derived_data/raman/20170920_Gr-NH2_for_Radisurf/20170920 Gr-NH for Radisurf map 1 (part 6)

File: SiO2 pos.txt
#XList		#YList		#IList
-28	-22	967.587
-9.000000	-22	977.625
10	-22	1007.53
29	-22	968.205
-18.5	-21.5	967.546
0.500000	-21.5	975.054
19.5	-21.5	998.383
-28	-21	967.09
-9.000000	-21	968.179
10	-21	900
29	-21	957.262
-18.5	-20.5	968.335
0.500000	-20.5	967.571
19.5	-20.5	963.553
-28	-20	966.844
-9.000000	-20	965.806
10	-20	972.65
29	-20	1100
-18.5	-19.5	964.08
0.500000	-19.5	968.236
19.5	-19.5	969.797
-28	-19	965.219
-9.000000	-19	969.517
10	-19	970.537
29	-19	965.037
-18.5	-18.5	972.858
0.500000	-18.5	968.674
19.5	-18.5	967.615
-28	-18	966.848
-9.000000	-18	965.742
10	-18	1100
29	-18	964.672
-18.5	-17.5	965.897
0.500000	-17.5	966.41
19.5	-17.5	978.268
-28	-17	966.035
-9.000000	-17	966.23
10	-17	970.189
29	-17	965.898
-18.5	-16.5	969.053
0.500000	-16.5	954.469
19.5	-16.5	970.825
-28	-16	982.319
-9.000000	-16	967.704
10	-16	957.555
29	-16	962.357
-18.5	-15.5	954.193
0.500000	-15.5	978.804
19.5	-15.5	967.034
-28	-15	970.31
-9.000000	-15	970.579
10	-15	974.072
29	-15	946.848
-18.5	-14.5	966.737
0.500000	-14.5	964.99
19.5	-14.5	967.202
-28	-14	965.682
-9.000000	-14	975.522
10	-14	971.83
29	-14	978.178
-18.5	-13.5	963.216
0.500000	-13.5	960.391
19.5	-13.5	964.834
-28	-13	966.647
-9.000000	-13	974.899
10	-13	968.822
29	-13	951.666
-18.5	-12.5	966.902
0.500000	-12.5	1012.58
19.5	-12.5	966.751
-28	-12	964.801
-9.000000	-12	959.031
10	-12	965.931
29	-12	958.043
-18.5	-11.5	962.075
0.500000	-11.5	970.714
19.5	-11.5	967.109
-28	-11	967.546
-9.000000	-11	975.687
10	-11	971.152
29	-11	966.86
-18.5	-10.5	943.823
0.500000	-10.5	971.985
19.5	-10.5	974.078
-28	-10	967.173
-9.000000	-10	954.447
10	-10	968.142
29	-10	967.95
-18.5	-9.500000	965.719
0.500000	-9.500000	960.335
19.5	-9.500000	976.468
-28	-9.000000	969.052
-9.000000	-9.000000	970.343
10	-9.000000	968.271
29	-9.000000	968.814
-18.5	-8.500000	999.056
0.500000	-8.500000	900.446
19.5	-8.500000	965.678
-28	-8.000000	967.676
-9.000000	-8.000000	967.646
10	-8.000000	963.23
29	-8.000000	972.134
-18.5	-7.500000	951.68
0.500000	-7.500000	1100
19.5	-7.500000	967.054
-28	-7.000000	966.7
-9.000000	-7.000000	971.347
10	-7.000000	967.905
29	-7.000000	962.678
-18.5	-6.500000	965.323
0.500000	-6.500000	971.613
19.5	-6.500000	969.397
-28	-6.000000	964.744
-9.000000	-6.000000	971.661
10	-6.000000	966.429
29	-6.000000	960.666
-18.5	-5.500000	900
0.500000	-5.500000	968.311
19.5	-5.500000	953.311
-28	-5.000000	966.831
-9.000000	-5.000000	967.769
10	-5.000000	981.26
29	-5.000000	969.016
-18.5	-4.500000	964.969
0.500000	-4.500000	966.633
19.5	-4.500000	968.917
-28	-4.000000	969.161
-9.000000	-4.000000	966.193
10	-4.000000	967.957
29	-4.000000	965.965
-18.5	-3.500000	1100
0.500000	-3.500000	968.933
19.5	-3.500000	967.79
-28	-3.000000	969.594
-9.000000	-3.000000	967.088
10	-3.000000	967.15
29	-3.000000	966.638
-18.5	-2.500000	967.651
0.500000	-2.500000	965.646
19.5	-2.500000	1100
-28	-2.000000	976.554
-9.000000	-2.000000	966.212
10	-2.000000	975.591
29	-2.000000	969.292
-18.5	-1.500000	967.311
0.500000	-1.500000	968.805
19.5	-1.500000	1100
-28	-1.000000	972.256
-9.000000	-1.000000	982.755
10	-1.000000	967.466
29	-1.000000	987.417
-18.5	-0.500000	975.303
0.500000	-0.500000	968.561
19.5	-0.500000	977.907
-28	0.000000	967.864
-9.000000	0.000000	966.926
10	0.000000	972.664
29	0.000000	983.02
-18.5	0.500000	958.7
0.500000	0.500000	953.588
19.5	0.500000	965.995
-28	1.000000	965.58
-9.000000	1.000000	900
10	1.000000	978.222
29	1.000000	973.854
-18.5	1.500000	965.777
0.500000	1.500000	968.167
19.5	1.500000	969.845
-28	2.000000	968.102
-9.000000	2.000000	974.252
10	2.000000	970.645
29	2.000000	965.567
-18.5	2.500000	982.024
0.500000	2.500000	963.429
19.5	2.500000	986.807
-28	3.000000	964.205
-9.000000	3.000000	966.556
10	3.000000	972.061
29	3.000000	953.984
-18.5	3.500000	1100
0.500000	3.500000	1100
19.5	3.500000	900
-28	4.000000	963.984
-9.000000	4.000000	966.832
10	4.000000	966.624
29	4.000000	982.165
-18.5	4.500000	969.429
0.500000	4.500000	979.088
19.5	4.500000	968.908
-28	5.000000	900
-9.000000	5.000000	944.835
10	5.000000	900
29	5.000000	1099.87
-18.5	5.500000	963.27
0.500000	5.500000	967.344
19.5	5.500000	1010.93
-28	6.000000	991.023
-9.000000	6.000000	966.372
10	6.000000	966.545
29	6.000000	968.789
-18.5	6.500000	970.474
0.500000	6.500000	967.842
19.5	6.500000	974.548
-28	7.000000	967.004
-9.000000	7.000000	963.445
10	7.000000	1099.94
29	7.000000	965.942
-18.5	7.500000	958.656
0.500000	7.500000	969.725
19.5	7.500000	962.008
-28	8.000000	966.87
-9.000000	8.000000	1024.16
10	8.000000	900
29	8.000000	998.943
-18.5	8.500000	970.879
0.500000	8.500000	978.9
19.5	8.500000	968.766
-28	9.000000	966.788
-9.000000	9.000000	965
10	9.000000	1035.6
29	9.000000	1100
-18.5	9.500000	968.309
0.500000	9.500000	968.825
19.5	9.500000	965.696
-28	10	967.136
-9.000000	10	965.469
10	10	900
29	10	956.562
-18.5	10.5	967.234
0.500000	10.5	962.579
19.5	10.5	972.91
-28	11	966.224
-9.000000	11	967.14
10	11	968.066
29	11	966.099
-18.5	11.5	969.219
0.500000	11.5	968.53
19.5	11.5	986.518
-28	12	967.284
-9.000000	12	967.423
10	12	978.063
29	12	966.106
-18.5	12.5	965.111
0.500000	12.5	970.373
19.5	12.5	934.476
-28	13	967.388
-9.000000	13	973.291
10	13	966.92
29	13	968.577
-18.5	13.5	968.152
0.500000	13.5	963.845
19.5	13.5	971.506
-28	14	967.411
-9.000000	14	917.848
10	14	963.644
29	14	953.253
-18.5	14.5	967.116
0.500000	14.5	966.971
19.5	14.5	900
-28	15	968.459
-9.000000	15	966.344
10	15	970.581
29	15	972.391
-18.5	15.5	967.403
0.500000	15.5	967.735
19.5	15.5	1014.85
-28	16	966.042
-9.000000	16	971.535
10	16	967.846
29	16	964.938
-18.5	16.5	968.307
0.500000	16.5	968.104
19.5	16.5	970.514
-28	17	967.036
-9.000000	17	983.873
10	17	966.852
29	17	972.577
-18.5	17.5	966.331
0.500000	17.5	968.087
19.5	17.5	987.747
-28	18	967.451
-9.000000	18	968.796
10	18	965.993
29	18	969.645
-18.5	18.5	967.852
0.500000	18.5	967.747
19.5	18.5	954.952
-28	19	967.655
-9.000000	19	965.407
10	19	968.503
29	19	966.089
-18.5	19.5	967.066
0.500000	19.5	967.391
19.5	19.5	1005.55
-28	20	968.083
-9.000000	20	966.394
10	20	968.671
29	20	968.166
38	20	965.839