Folder: graphene-production/data/derived_data/raman/20171207_GrNH2_from_20171130

File: 20171207_GrNH2_map_2_low_region_long_acq.txt
#X		#Y		#Wave		#Intensity
0.019300	0.000000	1539.12	10080.2
0.019300	0.000000	1476.37	6983.52
0.019300	0.000000	1413	9563.07
0.019300	0.000000	1349	38353.4
0.019300	0.000000	1284.37	9712.01
0.019300	0.000000	1219.1	4590
0.019300	0.000000	1153.17	3539.82
0.019300	0.000000	1086.58	2564.32
0.019300	0.000000	1019.31	2211.73
0.019300	0.000000	951.373	2842.55
0.019300	0.000000	882.738	1490.78
0.019300	0.000000	813.4	1496.14
0.019300	0.000000	743.348	1353.42
0.019300	0.000000	672.568	1438.11
0.019300	0.000000	601.045	1345.37
0.019300	0.000000	528.766	3159.81
0.019300	0.000000	455.713	1458.64
0.019300	0.000000	381.867	1574.24
0.019300	0.000000	307.213	1842.8
0.019300	0.000000	231.727	1568.87
1.019300	0.000000	1509.03	6706.34
1.019300	0.000000	1445.98	6478.55
1.019300	0.000000	1382.31	17322.6
1.019300	0.000000	1318.01	17073.7
1.019300	0.000000	1253.07	5287.09
1.019300	0.000000	1187.48	3289.96
1.019300	0.000000	1121.24	2839.37
1.019300	0.000000	1054.32	1937.18
1.019300	0.000000	986.736	2541.71
1.019300	0.000000	918.463	1508.15
1.019300	0.000000	849.49	1280.94
1.019300	0.000000	779.812	1230.74
1.019300	0.000000	709.41	1175.83
1.019300	0.000000	638.275	1310.91
1.019300	0.000000	566.391	1223.41
1.019300	0.000000	493.742	1370.67
1.019300	0.000000	420.311	1331.33
1.019300	0.000000	346.078	1447.52
1.019300	0.000000	271.025	1469.49
1.019300	0.000000	195.131	1240.12
2.019300	0.000000	1478.79	4657.44
2.019300	0.000000	1415.45	6286.57
2.019300	0.000000	1351.48	28316.9
2.019300	0.000000	1286.87	6195.47
2.019300	0.000000	1221.62	2851.01
2.019300	0.000000	1155.71	2355.55
2.019300	0.000000	1089.15	1861.79
2.019300	0.000000	1021.91	1481.47
2.019300	0.000000	953.998	2262.74
2.019300	0.000000	885.391	1074.69
2.019300	0.000000	816.08	1022.71
2.019300	0.000000	746.057	951.277
2.019300	0.000000	675.305	935.972
2.019300	0.000000	603.811	955.164
2.019300	0.000000	531.561	1947.5
2.019300	0.000000	458.537	1016.51
2.019300	0.000000	384.723	1108.91
2.019300	0.000000	310.1	1296.06
2.019300	0.000000	234.645	1055.5
3.019300	0.000000	1511.44	5122.88
3.019300	0.000000	1448.42	4614.92
3.019300	0.000000	1384.77	12643.7
3.019300	0.000000	1320.5	13402.9
3.019300	0.000000	1255.58	3890.11
3.019300	0.000000	1190.02	2357.92
3.019300	0.000000	1123.8	2084.44
3.019300	0.000000	1056.91	1435.08
3.019300	0.000000	989.348	1924.26
3.019300	0.000000	921.102	1133.45
3.019300	0.000000	852.156	934.345
3.019300	0.000000	782.506	941.528
3.019300	0.000000	712.133	843.627
3.019300	0.000000	641.025	951.29
3.019300	0.000000	569.17	883.736
3.019300	0.000000	496.551	1118.36
3.019300	0.000000	423.148	1092.29
3.019300	0.000000	348.949	1106.58
3.019300	0.000000	273.928	1163.34
3.019300	0.000000	198.066	867.441
4.019300	0.000000	1481.22	5781.71
4.019300	0.000000	1417.9	7465.84
4.019300	0.000000	1353.95	32021.9
4.019300	0.000000	1289.37	7896.53
4.019300	0.000000	1224.14	3510.58
4.019300	0.000000	1158.26	2802.22
4.019300	0.000000	1091.72	2214.41
4.019300	0.000000	1024.51	1705.32
4.019300	0.000000	956.623	2389.38
4.019300	0.000000	888.043	1169.42
4.019300	0.000000	818.76	1211.67
4.019300	0.000000	748.762	1045.9
4.019300	0.000000	678.039	1089.97
4.019300	0.000000	606.574	1196.25
4.019300	0.000000	534.354	1550.76
4.019300	0.000000	461.359	1155.12
4.019300	0.000000	387.576	1204.02
4.019300	0.000000	312.984	1357.28
4.019300	0.000000	237.562	1205.1
0.019300	1.000000	1513.85	6352.61
0.019300	1.000000	1450.85	5577.79
0.019300	1.000000	1387.23	12939.3
0.019300	1.000000	1322.98	17177.3
0.019300	1.000000	1258.09	4958.19
0.019300	1.000000	1192.55	2862.17
0.019300	1.000000	1126.36	2743.84
0.019300	1.000000	1059.49	1708.44
0.019300	1.000000	991.959	1923.09
0.019300	1.000000	923.738	1245.76
0.019300	1.000000	854.822	1105.51
0.019300	1.000000	785.197	953.047
0.019300	1.000000	714.852	1005.77
0.019300	1.000000	643.773	1091.79
0.019300	1.000000	571.947	1022.74
0.019300	1.000000	499.357	1298.75
0.019300	1.000000	425.986	1186.16
0.019300	1.000000	351.818	1162.83
0.019300	1.000000	276.828	1210.39
0.019300	1.000000	201	1031.49
1.019300	1.000000	1483.64	4927.25
1.019300	1.000000	1420.34	6115.56
1.019300	1.000000	1356.42	28306.1
1.019300	1.000000	1291.86	6907.59
1.019300	1.000000	1226.66	3007.96
1.019300	1.000000	1160.81	2286.64
1.019300	1.000000	1094.29	1853.51
1.019300	1.000000	1027.11	1342.06
1.019300	1.000000	959.248	1860.4
1.019300	1.000000	890.693	905.71
1.019300	1.000000	821.438	889.036
1.019300	1.000000	751.469	833.722
1.019300	1.000000	680.773	951.358
1.019300	1.000000	609.336	890.76
1.019300	1.000000	537.145	1227.14
1.019300	1.000000	464.182	934.051
1.019300	1.000000	390.43	943.28
1.019300	1.000000	315.869	1056.11
1.019300	1.000000	240.479	927.793
2.019300	1.000000	1516.26	6500.25
2.019300	1.000000	1453.29	5329.26
2.019300	1.000000	1389.69	12177.3
2.019300	1.000000	1325.46	18094.3
2.019300	1.000000	1260.6	4982.02
2.019300	1.000000	1195.08	2979.77
2.019300	1.000000	1128.91	2692.11
2.019300	1.000000	1062.08	1670.39
2.019300	1.000000	994.57	1768.63
2.019300	1.000000	926.375	1282.29
2.019300	1.000000	857.484	1117.21
2.019300	1.000000	787.889	953.424
2.019300	1.000000	717.572	998.813
2.019300	1.000000	646.521	1108.61
2.019300	1.000000	574.725	895.263
2.019300	1.000000	502.164	1318.89
2.019300	1.000000	428.824	1184.89
2.019300	1.000000	354.686	1156.35
2.019300	1.000000	279.729	1226.44
2.019300	1.000000	203.932	924.485
3.019300	1.000000	1486.06	5137.68
3.019300	1.000000	1422.79	6289.64
3.019300	1.000000	1358.89	29357.5
3.019300	1.000000	1294.36	7704.09
3.019300	1.000000	1229.18	3326.69
3.019300	1.000000	1163.35	2460.46
3.019300	1.000000	1096.87	2019.6
3.019300	1.000000	1029.71	1488.97
3.019300	1.000000	961.869	2150.97
3.019300	1.000000	893.342	1057.08
3.019300	1.000000	824.113	1042.6
3.019300	1.000000	754.172	915.424
3.019300	1.000000	683.506	960.891
3.019300	1.000000	612.098	999.794
3.019300	1.000000	539.936	1150.58
3.019300	1.000000	467.002	1108.2
3.019300	1.000000	393.281	1096.28
3.019300	1.000000	318.752	1266.48
3.019300	1.000000	243.395	1062.02
4.019300	1.000000	1518.67	5888.34
4.019300	1.000000	1455.72	5107.26
4.019300	1.000000	1392.15	11089.1
4.019300	1.000000	1327.95	18695.6
4.019300	1.000000	1263.1	4742.51
4.019300	1.000000	1197.62	2838.68
4.019300	1.000000	1131.47	2548.41
4.019300	1.000000	1064.66	1671.03
4.019300	1.000000	997.178	1901.58
4.019300	1.000000	929.012	1521.89
4.019300	1.000000	860.148	1098.87
4.019300	1.000000	790.578	990.987
4.019300	1.000000	720.289	964.248
4.019300	1.000000	649.268	1079.92
4.019300	1.000000	577.5	949.689
4.019300	1.000000	504.969	1870.39
4.019300	1.000000	431.658	1210.07
4.019300	1.000000	357.551	1198.71
4.019300	1.000000	282.627	1394.35
4.019300	1.000000	206.863	977.787
0.019300	2.000000	1488.48	1512.14
0.019300	2.000000	1425.23	1863.47
0.019300	2.000000	1361.36	7178.11
0.019300	2.000000	1296.85	2276.21
0.019300	2.000000	1231.7	967.016
0.019300	2.000000	1165.9	631.078
0.019300	2.000000	1099.44	690.978
0.019300	2.000000	1032.3	788.132
0.019300	2.000000	964.492	4200.6
0.019300	2.000000	895.99	862.987
0.019300	2.000000	826.789	800.016
0.019300	2.000000	756.877	595.725
0.019300	2.000000	686.236	686.625
0.019300	2.000000	614.857	864.301
0.019300	2.000000	542.725	1610.03
0.019300	2.000000	469.822	707.77
0.019300	2.000000	396.131	900.201
0.019300	2.000000	321.633	1369.42
0.019300	2.000000	246.309	1060.76
1.019300	2.000000	1521.08	5755.6
1.019300	2.000000	1458.15	4755.56
1.019300	2.000000	1394.61	9767.97
1.019300	2.000000	1330.43	17630.3
1.019300	2.000000	1265.61	4424.98
1.019300	2.000000	1200.15	2531.49
1.019300	2.000000	1134.03	2435.91
1.019300	2.000000	1067.24	1476.04
1.019300	2.000000	999.787	1444
1.019300	2.000000	931.645	1395.3
1.019300	2.000000	862.809	941.452
1.019300	2.000000	793.268	952.319
1.019300	2.000000	723.006	854.178
1.019300	2.000000	652.014	987.438
1.019300	2.000000	580.273	795.034
1.019300	2.000000	507.773	1774.84
1.019300	2.000000	434.494	1062.34
1.019300	2.000000	360.416	1012.44
1.019300	2.000000	285.523	1070.38
1.019300	2.000000	209.793	868.953
2.019300	2.000000	1490.9	5238.7
2.019300	2.000000	1427.68	5960.86
2.019300	2.000000	1363.83	26137.9
2.019300	2.000000	1299.35	8538.54
2.019300	2.000000	1234.22	3496.1
2.019300	2.000000	1168.44	2446.61
2.019300	2.000000	1102	2032.84
2.019300	2.000000	1034.9	1414.94
2.019300	2.000000	967.113	1990.43
2.019300	2.000000	898.639	1025.79
2.019300	2.000000	829.465	1039.68
2.019300	2.000000	759.578	893.942
2.019300	2.000000	688.967	862.747
2.019300	2.000000	617.617	951.66
2.019300	2.000000	545.514	1024.17
2.019300	2.000000	472.641	1032.81
2.019300	2.000000	398.98	1002.4
2.019300	2.000000	324.514	1067.87
2.019300	2.000000	249.221	1054.35
3.019300	2.000000	1523.49	7591.88
3.019300	2.000000	1460.58	6256.77
3.019300	2.000000	1397.06	11753.3
3.019300	2.000000	1332.91	26576.5
3.019300	2.000000	1268.12	6505.22
3.019300	2.000000	1202.68	3495.22
3.019300	2.000000	1136.58	3198.25
3.019300	2.000000	1069.82	1994
3.019300	2.000000	1002.39	1922.24
3.019300	2.000000	934.279	2014.95
3.019300	2.000000	865.471	1225.68
3.019300	2.000000	795.955	1101.55
3.019300	2.000000	725.723	1121.56
3.019300	2.000000	654.758	1219.3
3.019300	2.000000	583.047	1094.74
3.019300	2.000000	510.576	2749.9
3.019300	2.000000	437.326	1385.86
3.019300	2.000000	363.281	1397.06
3.019300	2.000000	288.42	1461.18
3.019300	2.000000	212.721	1222.87
4.019300	2.000000	1493.32	2505.6
4.019300	2.000000	1430.12	2759.46
4.019300	2.000000	1366.3	10718.6
4.019300	2.000000	1301.84	4680.33
4.019300	2.000000	1236.73	1806.34
4.019300	2.000000	1170.98	1143.11
4.019300	2.000000	1104.57	952.532
4.019300	2.000000	1037.49	931.448
4.019300	2.000000	969.732	3543.31
4.019300	2.000000	901.285	856.103
4.019300	2.000000	832.139	836.189
4.019300	2.000000	762.279	575.831
4.019300	2.000000	691.697	674.348
4.019300	2.000000	620.375	892.201
4.019300	2.000000	548.301	1021
4.019300	2.000000	475.457	798.897
4.019300	2.000000	401.828	932.567
4.019300	2.000000	327.393	1205.56
4.019300	2.000000	252.133	1070.26
4.019300	2.000000	193.664	575.645