Folder: graphene-production/data/derived_data/raman/20170920_Gr-NH2_for_Radisurf

Note: data/derived_data/raman/20170920_Gr-NH2_for_Radisurf/20170920_curvecata_map 2_697__X_7.65858__Y_-11.065__Time_703.txt
Curve Name	Centre	Width	Height	% Gaussian	Type	Area	ChiSq
D	1352.38	96.9513	511.762	0	Lorentzian	77936.7	2.44728
G	1583.92	54.2881	732.87	0	Lorentzian	62496	
D'	1615.46	14.6967	128.49	0	Lorentzian	2966.25	
2D	2706.3	142.989	228.26	0	Lorentzian	51268.6	
D+D'	2932.86	189.06	184.747	0	Lorentzian	54865.2	
2D'	3161.51	142.228	61.2674	0	Lorentzian	13687.8	
SiO2	900	0.639823	0	100	Gaussian	0

Note: data/derived_data/raman/20170920_Gr-NH2_for_Radisurf/20170920_curvedata_map 1_1691__X_19.5__Y_-16__Time_181.txt
Curve Name	Centre	Width	Height	% Gaussian	Type	Area	ChiSq
D	1348.85	92.052	183.696	0	Lorentzian	26561.6	1.28831
G	1579.65	43.0678	283.096	0	Lorentzian	19151.6	
D'	1615.46	20.5046	71.1282	0	Lorentzian	2290.94	
2D	2698.71	89.2174	83.357	0	Lorentzian	11681.8	
D+D'	2929.34	160.033	31.6501	0	Lorentzian	7956.16	
2D'	3171.37	102.754	8.75954	0	Lorentzian	1413.84	
SiO2	965.374	55.9139	21.7253	100	Gaussian	1293.06

File: 20170920 Gr-NH for Radisurf map 1_1691__X_19.5__Y_-16__Time_181.txt
3396.06	0.492913
3387.29	1.423728
3378.5	15.9981
3369.71	0.976476
3360.92	4.164760
3352.1	-0.593982
3343.29	-3.073026
3334.46	9.172750
3325.62	7.823841
3316.77	3.091724
3307.91	-0.499175
3299.04	15.0794
3290.16	4.733426
3281.27	0.035396
3272.37	-3.526486
3263.46	-1.468243
3254.54	0.587757
3245.61	4.880332
3236.67	16.9927
3227.72	14.5605
3218.76	21.0611
3209.79	14.177
3200.81	12.8764
3191.82	3.798206
3182.82	20.2863
3173.81	7.897057
3164.79	6.618879
3155.76	14.2004
3146.72	9.606105
3137.67	13.8589
3128.6	23.6195
3119.53	-1.896406
3110.45	-2.039950
3101.36	8.811829
3092.25	16.3472
3083.14	12.9002
3074.01	0.699614
3064.88	11.5083
3055.73	15.7367
3046.58	16.6825
3037.41	2.361934
3028.23	12.0395
3019.05	19.5213
3009.85	13.9476
3000.64	14.9019
2991.42	14.7722
2982.19	21.1429
2972.95	21.011
2963.7	32.7668
2954.44	25.0719
2945.16	38.9566
2935.88	36.6606
2926.59	31.1458
2917.28	31.0172
2907.97	34.1102
2898.64	36.1266
2889.3	32.7882
2879.95	29.4598
2870.59	24.0055
2861.22	21.7665
2851.84	20.6006
2842.45	13.0541
2833.05	23.599
2823.63	22.4419
2814.21	11.7451
2804.77	34.9732
2795.33	19.001
2785.87	27.3754
2776.4	26.2323
2766.92	17.7138
2757.43	32.3858
2747.92	37.5589
2738.41	47.9753
2728.88	54.1718
2719.35	81.319
2709.8	87.4661
2700.24	76.8699
2690.67	72.5675
2681.09	80.796
2671.5	60.8739
2661.89	51.4085
2652.28	41.9677
2642.65	39.8194
2633.01	27.308
2623.36	15.8644
2613.7	25.1419
2604.03	18.8993
2594.34	21.9629
2584.65	17.8053
2574.94	26.0157
2565.22	9.526391
2555.49	16.7044
2545.75	12.5818
2535.99	20.7683
2526.23	20.7492
2516.45	3.353339
2506.66	4.380728
2496.86	14.5865
2487.05	9.490677
2477.22	6.444106
2467.39	8.487958
2457.54	6.469301
2447.68	3.443996
2437.81	-2.609342
2427.92	8.546035
2418.03	2.505559
2408.12	-2.509304
2398.2	6.596929
2388.27	14.6769
2378.32	10.6773
2368.37	2.673566
2358.4	2.713459
2348.42	1.753865
2338.43	7.800975
2328.42	-4.148284
2318.41	-0.100194
2308.38	7.926877
2298.34	4.986504
2288.28	-8.881227
2278.22	2.112659
2268.14	2.171868
2258.05	0.251810
2247.95	-4.629606
2237.83	0.384761
2227.7	3.414979
2217.56	-2.431969
2207.41	-11.2161
2197.25	-4.243298
2187.07	-0.231936
2176.88	0.828826
2166.68	1.888979
2156.46	-8.793419
2146.23	-3.810845
2135.99	-5.671143
2125.74	-3.625331
2115.47	2.312079
2105.2	1.429465
2094.91	9.292357
2084.6	-1.293424
2074.29	-2.162503
2063.96	1.810770
2053.61	-4.854894
2043.26	11.6639
2032.89	-2.706119
2022.51	-7.409988
2012.12	2.324400
2001.71	3.392335
1991.29	-0.336781
1980.86	-5.012804
1970.41	2.763687
1959.95	-3.812236
1949.48	8.719075
1938.99	5.968714
1928.49	-2.485382
1917.98	0.493819
1907.46	-6.029383
1896.92	3.589533
1886.37	4.660422
1875.8	-1.838356
1865.22	2.074717
1854.63	3.148411
1844.03	7.991069
1833.41	3.410002
1822.78	6.363023
1812.13	3.676620
1801.47	1.936290
1790.8	1.138512
1780.11	11.5685
1769.41	5.158549
1758.7	0.632316
1747.97	11.0277
1737.23	14.8839
1726.48	5.719870
1715.71	10.504
1704.93	-4.190504
1694.13	7.077926
1683.32	9.072152
1672.5	10.1392
1661.66	18.5831
1650.81	20.5589
1639.95	45.5293
1629.07	73.1928
1618.18	123.726
1607.27	155.801
1596.35	190.541
1585.41	259.011
1574.46	302.657
1563.5	157.477
1552.52	113.737
1541.53	81.9317
1530.52	75.637
1519.5	58.4761
1508.47	47.7011
1497.42	49.6192
1486.35	55.147
1475.28	49.8342
1464.18	41.833
1453.08	55.4507
1441.95	48.3634
1430.82	52.0657
1419.67	62.0336
1408.5	80.9281
1397.32	86.3634
1386.13	91.7851
1374.92	120.377
1363.69	179.17
1352.46	199.569
1341.2	190.604
1329.93	172.794
1318.65	122.255
1307.35	84.2343
1296.04	94.9063
1284.71	72.9047
1273.37	46.5559
1262.01	47.5565
1250.63	36.2515
1239.25	27.6097
1227.84	32.1384
1216.42	19.1491
1204.99	25.4259
1193.54	16.8456
1182.08	29.212
1170.6	15.426
1159.1	22.5448
1147.59	10.5415
1136.06	13.3122
1124.52	21.2717
1112.97	10.1833
1101.39	10.3527
1089.8	8.796545
1078.2	7.244572
1066.58	12.5783
1054.95	4.153012
1043.3	0.039714
1031.63	-1.492444
1019.95	4.679491
1008.25	11.6889
996.535	12.7064
984.807	16.2771
973.061	13.0303
961.299	23.3883
949.52	23.5344
937.727	16.0523
925.916	11.1291
914.09	-1.387630
902.248	-6.274729
890.391	-5.249091
878.516	-8.435289
866.625	0.154201
854.717	-5.550116
842.793	-2.857133
830.854	0.664784
818.896	-0.839372
806.924	-2.340244
800.932	1.081579

File: 20170920 Gr-NH for Radisurf map 2_697__X_7.65858__Y_-11.065__Time_703.txt
3396.06	-2.904507
3387.29	5.848583
3378.5	-5.991953
3369.71	14.0261
3360.92	24.9047
3352.1	17.5977
3343.29	-6.701018
3334.46	18.8582
3325.62	9.297550
3316.77	31.3776
3307.91	15.0396
3299.04	31.4138
3290.16	22.9774
3281.27	21.2994
3272.37	44.3282
3263.46	32.5176
3254.54	65.5534
3245.61	51.492
3236.67	64.2906
3227.72	54.7153
3218.76	74.1607
3209.79	83.5257
3200.81	98.4278
3191.82	74.3745
3182.82	72.5804
3173.81	86.3138
3164.79	105.549
3155.76	88.2098
3146.72	104.069
3137.67	94.4869
3128.6	66.1683
3119.53	74.2659
3110.45	84.5395
3101.36	82.6911
3092.25	90.7226
3083.14	93.2454
3074.01	89.1831
3064.88	100.443
3055.73	121.508
3046.58	123.958
3037.41	131.85
3028.23	107.04
3019.05	131.24
3009.85	127.123
3000.64	171.856
2991.42	154.679
2982.19	155.947
2972.95	181.003
2963.7	188.708
2954.44	187.756
2945.16	207.282
2935.88	204.146
2926.59	204.238
2917.28	201.101
2907.97	202.258
2898.64	188.403
2889.3	176.715
2879.95	196.058
2870.59	196.126
2861.22	170.587
2851.84	165.347
2842.45	147.344
2833.05	157.016
2823.63	117.819
2814.21	137.038
2804.77	158.327
2795.33	130.891
2785.87	150.015
2776.4	163.812
2766.92	177.572
2757.43	178.659
2747.92	216.554
2738.41	233.343
2728.88	279.472
2719.35	269.936
2709.8	258.325
2700.24	271.834
2690.67	248.751
2681.09	245.541
2671.5	183.983
2661.89	174.606
2652.28	129.904
2642.65	123.721
2633.01	134.142
2623.36	101.033
2613.7	104.209
2604.03	109.442
2594.34	112.596
2584.65	76.5666
2574.94	87.9852
2565.22	70.5783
2555.49	71.7008
2545.75	71.7929
2535.99	63.6851
2526.23	44.3363
2516.45	57.7461
2506.66	68.0593
2496.86	34.493
2487.05	51.9374
2477.22	37.7995
2467.39	34.8728
2457.54	53.2665
2447.68	46.2721
2437.81	14.9939
2427.92	21.2084
2418.03	42.5588
2408.12	22.4949
2398.2	19.6092
2388.27	26.7948
2378.32	9.838883
2368.37	20.0316
2358.4	16.1619
2348.42	36.3391
2338.43	4.451649
2328.42	28.5924
2318.41	13.758
2308.38	2.947779
2298.34	25.0153
2288.28	10.2438
2278.22	16.3636
2268.14	18.5031
2258.05	-2.144440
2247.95	-0.972731
2237.83	6.127499
2227.7	-1.591670
2217.56	2.539750
2207.41	-8.104282
2197.25	-0.035827
2187.07	0.158890
2176.88	0.356357
2166.68	13.2929
2156.46	13.4808
2146.23	19.5355
2135.99	8.985723
2125.74	0.415853
2115.47	-3.260302
2105.2	0.856719
2094.91	-0.859415
2084.6	12.9544
2074.29	-7.171154
2063.96	7.593833
2053.61	21.3609
2043.26	-2.545552
2032.89	13.1389
2022.51	16.2731
2012.12	28.0602
2001.71	14.8524
1991.29	-2.153069
1980.86	8.673732
1970.41	0.343245
1959.95	-2.225712
1949.48	11.4444
1938.99	6.022587
1928.49	9.190211
1917.98	9.504955
1907.46	4.128756
1896.92	-20.1953
1886.37	-11.2953
1875.8	-1.463088
1865.22	12.1326
1854.63	10.6036
1844.03	-11.6475
1833.41	0.054052
1822.78	11.7354
1812.13	5.557400
1801.47	18.1595
1790.8	-7.658458
1780.11	4.948922
1769.41	10.0615
1758.7	22.6356
1747.97	11.894
1737.23	19.8031
1726.48	18.4092
1715.71	26.3127
1704.93	19.3753
1694.13	14.3195
1683.32	25.9329
1672.5	18.1361
1661.66	44.4971
1650.81	82.7782
1639.95	120.054
1629.07	259.229
1618.18	411.822
1607.27	500.806
1596.35	624.351
1585.41	828.024
1574.46	646.877
1563.5	458.006
1552.52	361.597
1541.53	285.456
1530.52	248.577
1519.5	216.344
1508.47	185.116
1497.42	167.555
1486.35	148.248
1475.28	159.685
1464.18	163.901
1453.08	162.724
1441.95	161.568
1430.82	197.231
1419.67	195.172
1408.5	245.059
1397.32	292.151
1386.13	367.71
1374.92	395.831
1363.69	504.042
1352.46	545.288
1341.2	504.734
1329.93	429.714
1318.65	370.856
1307.35	261.749
1296.04	219.213
1284.71	172.399
1273.37	128.375
1262.01	113.529
1250.63	95.2306
1239.25	72.6158
1227.84	70.2437
1216.42	45.1443
1204.99	27.1292
1193.54	23.1549
1182.08	26.1911
1170.6	17.9264
1159.1	9.709723
1147.59	11.0933
1136.06	18.57
1124.52	7.867772
1112.97	5.005365
1101.39	4.769627
1089.8	8.013193
1078.2	0.940142
1066.58	-6.084808
1054.95	-2.752908
1043.3	-7.978958
1031.63	-2.023298
1019.95	-2.897334
1008.25	0.533710
996.535	-6.251825
984.807	-3.614522
973.061	1.600915
961.299	9.384086
949.52	1.055560
937.727	2.104841
925.916	-1.892491
914.09	-0.773795
902.248	-2.155556
890.391	-6.027058
878.516	-1.435215
866.625	0.658321
854.717	7.819119
842.793	3.261670
830.854	10.4731
818.896	7.671432
806.924	3.245938
800.932	-0.616251