Folder: graphene-production/data/raw_data/uvvis/170929 Gr-NH2 production

File: 0min.csv
0min.csv;;Kemi1\Kemi01;29-09-2017 13:31:30;GENESYS 10S UV-Vis;2L9T161212;4.006
nm;A
200;2.9795
203;3.1775
206;3.2474
209;3.2178
212;3.1971
215;3.1699
218;3.1743
221;3.1664
224;3.1868
227;3.2118
230;3.235
233;3.1942
236;3.1776
239;3.1533
242;3.1746
245;3.1503
248;3.1723
251;3.1431
254;3.1519
257;3.1666
260;3.2226
263;3.1695
266;3.1425
269;3.124
272;3.1423
275;3.1134
278;3.1193
281;3.1167
284;3.1389
287;3.1907
290;3.1873
293;3.1968
296;3.2904
299;3.4042
302;3.4993
305;3.4822
308;3.4591
311;3.4015
314;3.3227
317;3.2076
320;3.1399
323;3.1035
326;3.0479
329;2.9823
332;2.9552
335;2.9284
338;2.9086
341;2.8758
344;2.8912
347;2.8551
350;2.8317
353;2.8345
356;2.823
359;2.7375
362;2.4923
365;1.9387
368;1.4311
371;1.001
374;0.6967
377;0.4999
380;0.3784
383;0.296
386;0.244
389;0.211
392;0.1892
395;0.1743
398;0.1634
401;0.1565
404;0.1512
407;0.1476
410;0.1448
413;0.143
416;0.1416
419;0.1402
422;0.1389
425;0.1376
428;0.1361
431;0.1342
434;0.132
437;0.1298
440;0.1273
443;0.125
446;0.1222
449;0.1201
452;0.1176
455;0.1151
458;0.1124
461;0.11
464;0.1074
467;0.1046
470;0.1023
473;0.0997
476;0.0972
479;0.0953
482;0.0929
485;0.0911
488;0.0891
491;0.0867
494;0.0846
497;0.0827
500;0.0807
503;0.0781
506;0.0755
509;0.0736
512;0.0711
515;0.069
518;0.0661
521;0.0639
524;0.0617
527;0.0587
530;0.0567
533;0.0541
536;0.052
539;0.0492
542;0.0469
545;0.0442
548;0.0419
551;0.04
554;0.0369
557;0.0351
560;0.0331
563;0.0312
566;0.0297
569;0.0282
572;0.0266
575;0.0252
578;0.0239
581;0.0225
584;0.0218
587;0.0211
590;0.02
593;0.0195
596;0.0187
599;0.0182
602;0.0175
605;0.0169
608;0.0165
611;0.0154
614;0.0156
617;0.0158
620;0.0146
623;0.0144
626;0.0132
629;0.0136
632;0.0137
635;0.013
638;0.0119
641;0.0126
644;0.012
647;0.0119
650;0.0118
653;0.0115
656;0.0112
659;0.0114
662;0.0111
665;0.0114
668;0.0106
671;0.0104
674;0.0102
677;0.0099
680;0.0099
683;0.0102
686;0.0098
689;0.0098
692;0.0101
695;0.0095
698;0.0098
701;0.0094
704;0.0094
707;0.0095
710;0.0091
713;0.0087
716;0.0085
719;0.0084
722;0.0084
725;0.0084
728;0.0081
731;0.0089
734;0.0084
737;0.0083
740;0.0096
743;0.0086
746;0.0081
749;0.0084
752;0.0083
755;0.0079
758;0.0076
761;0.0084
764;0.0082
767;0.0076
770;0.0078
773;0.007
776;0.008
779;0.0071
782;0.0075
785;0.0071
788;0.0076
791;0.0073
794;0.0071
797;0.0069
800;0.0074

File: 10min.csv
10min.csv;;Kemi1\Kemi01;29-09-2017 13:36:46;GENESYS 10S UV-Vis;2L9T161212;4.006
nm;A
200;3.0181
203;3.1848
206;3.2499
209;3.2358
212;3.2103
215;3.1967
218;3.1848
221;3.1781
224;3.1811
227;3.2129
230;3.2513
233;3.1986
236;3.1882
239;3.1861
242;3.1983
245;3.1669
248;3.1927
251;3.1621
254;3.1629
257;3.1709
260;3.2064
263;3.165
266;3.129
269;3.1021
272;3.1136
275;3.0909
278;3.0912
281;3.0743
284;3.0978
287;3.1391
290;3.1457
293;3.1467
296;3.2294
299;3.327
302;3.4135
305;3.402
308;3.4058
311;3.3236
314;3.2416
317;3.1442
320;3.0988
323;3.0758
326;3.0201
329;2.9724
332;2.9619
335;2.9397
338;2.9195
341;2.8898
344;2.908
347;2.8738
350;2.8553
353;2.849
356;2.8404
359;2.7501
362;2.4985
365;1.974
368;1.4845
371;1.0656
374;0.7627
377;0.5643
380;0.439
383;0.3544
386;0.3009
389;0.2673
392;0.2443
395;0.2284
398;0.2165
401;0.2082
404;0.2016
407;0.1969
410;0.1925
413;0.1897
416;0.1871
419;0.185
422;0.1832
425;0.1818
428;0.1804
431;0.1791
434;0.1775
437;0.1763
440;0.1745
443;0.1729
446;0.1708
449;0.169
452;0.1666
455;0.1644
458;0.1617
461;0.1587
464;0.1552
467;0.1516
470;0.1474
473;0.1439
476;0.1393
479;0.1346
482;0.1296
485;0.1253
488;0.1203
491;0.1149
494;0.1102
497;0.1053
500;0.1
503;0.0949
506;0.09
509;0.0851
512;0.0803
515;0.076
518;0.0713
521;0.0668
524;0.0627
527;0.0584
530;0.0552
533;0.0511
536;0.0479
539;0.0447
542;0.0415
545;0.0389
548;0.0367
551;0.0341
554;0.0316
557;0.0297
560;0.028
563;0.0263
566;0.0242
569;0.0229
572;0.0216
575;0.0202
578;0.0196
581;0.0184
584;0.0173
587;0.0169
590;0.0155
593;0.0153
596;0.0149
599;0.0141
602;0.0135
605;0.0131
608;0.0122
611;0.0121
614;0.0117
617;0.011
620;0.011
623;0.0101
626;0.0101
629;0.0098
632;0.0093
635;0.0094
638;0.009
641;0.0085
644;0.0082
647;0.0082
650;0.0081
653;0.0079
656;0.0075
659;0.0072
662;0.0069
665;0.0072
668;0.0075
671;0.0069
674;0.0069
677;0.0067
680;0.0069
683;0.0068
686;0.0063
689;0.0061
692;0.0059
695;0.0056
698;0.0062
701;0.0061
704;0.0064
707;0.0062
710;0.0064
713;0.0049
716;0.0056
719;0.0049
722;0.0055
725;0.0047
728;0.0047
731;0.0057
734;0.0055
737;0.0052
740;0.0056
743;0.0056
746;0.0048
749;0.0052
752;0.005
755;0.0045
758;0.0044
761;0.0053
764;0.0046
767;0.0044
770;0.0046
773;0.0052
776;0.0051
779;0.0045
782;0.0038
785;0.0053
788;0.0039
791;0.0043
794;0.0045
797;0.0046
800;0.0052

File: 20min.csv
20min.csv;;Kemi1\Kemi01;29-09-2017 13:41:09;GENESYS 10S UV-Vis;2L9T161212;4.006
nm;A
200;3.0182
203;3.1698
206;3.2436
209;3.2215
212;3.2055
215;3.1689
218;3.161
221;3.1494
224;3.1661
227;3.1993
230;3.2232
233;3.1874
236;3.1702
239;3.1464
242;3.1699
245;3.1452
248;3.1647
251;3.1164
254;3.1263
257;3.1124
260;3.1508
263;3.1007
266;3.062
269;3.0401
272;3.0398
275;3.0204
278;3.0221
281;3.0117
284;3.0292
287;3.0659
290;3.0719
293;3.0808
296;3.1498
299;3.2403
302;3.326
305;3.2865
308;3.2303
311;3.149
314;3.081
317;3.0256
320;2.9924
323;2.9864
326;2.9681
329;2.929
332;2.92
335;2.8983
338;2.8836
341;2.8588
344;2.8767
347;2.8463
350;2.822
353;2.8139
356;2.8045
359;2.7007
362;2.4092
365;1.862
368;1.3745
371;0.966
374;0.6782
377;0.495
380;0.3829
383;0.3092
386;0.2637
389;0.2357
392;0.217
395;0.2038
398;0.1945
401;0.1879
404;0.1824
407;0.1785
410;0.1749
413;0.1726
416;0.1701
419;0.1682
422;0.1668
425;0.1656
428;0.1641
431;0.1622
434;0.1611
437;0.1595
440;0.1579
443;0.1561
446;0.154
449;0.152
452;0.1494
455;0.1469
458;0.1443
461;0.141
464;0.1377
467;0.1341
470;0.1305
473;0.1265
476;0.1225
479;0.1186
482;0.1136
485;0.1093
488;0.1049
491;0.1001
494;0.0953
497;0.091
500;0.0868
503;0.082
506;0.0777
509;0.0736
512;0.0695
515;0.0653
518;0.0616
521;0.0578
524;0.0541
527;0.0506
530;0.0477
533;0.0447
536;0.0421
539;0.0393
542;0.0368
545;0.0346
548;0.0328
551;0.0308
554;0.0293
557;0.0276
560;0.0259
563;0.0246
566;0.0237
569;0.0222
572;0.0207
575;0.0197
578;0.019
581;0.0182
584;0.0177
587;0.0166
590;0.0162
593;0.0159
596;0.0153
599;0.0147
602;0.014
605;0.0137
608;0.0133
611;0.013
614;0.0128
617;0.0117
620;0.012
623;0.011
626;0.0106
629;0.0103
632;0.0105
635;0.0093
638;0.0103
641;0.0083
644;0.0082
647;0.0084
650;0.0083
653;0.0077
656;0.0078
659;0.0086
662;0.0072
665;0.0074
668;0.0078
671;0.0071
674;0.0073
677;0.0072
680;0.0072
683;0.0076
686;0.0074
689;0.008
692;0.0073
695;0.0071
698;0.007
701;0.0071
704;0.006
707;0.0066
710;0.0062
713;0.0058
716;0.0057
719;0.007
722;0.0057
725;0.0052
728;0.0054
731;0.0057
734;0.0055
737;0.0055
740;0.0055
743;0.0062
746;0.0044
749;0.0046
752;0.0049
755;0.0057
758;0.0049
761;0.0053
764;0.0046
767;0.0051
770;0.0046
773;0.0051
776;0.0043
779;0.0045
782;0.0042
785;0.0047
788;0.0045
791;0.0041
794;0.0047
797;0.005
800;0.0057

File: 30min.csv
30min.csv;;Kemi1\Kemi01;29-09-2017 13:46:00;GENESYS 10S UV-Vis;2L9T161212;4.006
nm;A
200;2.9902
203;3.1241
206;3.221
209;3.1971
212;3.1573
215;3.1275
218;3.0946
221;3.0878
224;3.1181
227;3.14
230;3.17
233;3.1308
236;3.1224
239;3.1012
242;3.1269
245;3.0912
248;3.1102
251;3.0671
254;3.0493
257;3.0254
260;3.0587
263;3.0113
266;2.9747
269;2.9565
272;2.9565
275;2.9317
278;2.9349
281;2.9314
284;2.9511
287;2.982
290;2.9879
293;3.0019
296;3.0557
299;3.1424
302;3.1682
305;3.0384
308;2.933
311;2.8731
314;2.8563
317;2.8501
320;2.8738
323;2.8924
326;2.8854
329;2.8558
332;2.8607
335;2.844
338;2.8284
341;2.8121
344;2.8242
347;2.7875
350;2.7718
353;2.7676
356;2.7541
359;2.6498
362;2.3552
365;1.798
368;1.3052
371;0.8958
374;0.6117
377;0.4323
380;0.3246
383;0.2553
386;0.2137
389;0.1882
392;0.1717
395;0.1605
398;0.1518
401;0.1454
404;0.1402
407;0.1357
410;0.1323
413;0.1291
416;0.1266
419;0.124
422;0.1217
425;0.1194
428;0.1175
431;0.1151
434;0.1131
437;0.1109
440;0.1086
443;0.1063
446;0.1039
449;0.1016
452;0.0993
455;0.0967
458;0.0943
461;0.0917
464;0.089
467;0.0861
470;0.0827
473;0.0804
476;0.0773
479;0.074
482;0.071
485;0.0682
488;0.0655
491;0.0625
494;0.0597
497;0.0568
500;0.054
503;0.0516
506;0.0486
509;0.0459
512;0.0436
515;0.0412
518;0.0388
521;0.0366
524;0.0349
527;0.0331
530;0.0313
533;0.0295
536;0.0282
539;0.0264
542;0.0252
545;0.0239
548;0.0235
551;0.0224
554;0.0207
557;0.0196
560;0.0193
563;0.0183
566;0.0178
569;0.0166
572;0.0166
575;0.0155
578;0.0144
581;0.0144
584;0.0141
587;0.0139
590;0.0135
593;0.0127
596;0.0127
599;0.0123
602;0.0124
605;0.0125
608;0.0118
611;0.0112
614;0.0107
617;0.0101
620;0.0098
623;0.0099
626;0.0097
629;0.0094
632;0.0092
635;0.0091
638;0.0085
641;0.0084
644;0.0083
647;0.0078
650;0.008
653;0.0076
656;0.008
659;0.007
662;0.0073
665;0.007
668;0.0074
671;0.0076
674;0.0076
677;0.0072
680;0.0068
683;0.008
686;0.0075
689;0.007
692;0.0067
695;0.0066
698;0.0061
701;0.006
704;0.006
707;0.0052
710;0.0054
713;0.0049
716;0.0052
719;0.0059
722;0.0048
725;0.0053
728;0.0047
731;0.0048
734;0.0057
737;0.0061
740;0.005
743;0.0058
746;0.0044
749;0.0047
752;0.0043
755;0.0052
758;0.005
761;0.0054
764;0.0042
767;0.0046
770;0.005
773;0.0038
776;0.0041
779;0.0043
782;0.0049
785;0.0039
788;0.0045
791;0.0038
794;0.0042
797;0.0046
800;0.0052

File: 40min.csv
40min.csv;;Kemi1\Kemi01;29-09-2017 13:50:22;GENESYS 10S UV-Vis;2L9T161212;4.006
nm;A
200;2.9457
203;3.1102
206;3.215
209;3.1767
212;3.1419
215;3.1091
218;3.0835
221;3.0785
224;3.099
227;3.1231
230;3.1525
233;3.1098
236;3.1041
239;3.0892
242;3.1109
245;3.0782
248;3.0921
251;3.0498
254;3.0283
257;3.0073
260;3.0306
263;2.9818
266;2.9483
269;2.9205
272;2.9277
275;2.905
278;2.9054
281;2.9017
284;2.9229
287;2.9483
290;2.9514
293;2.9644
296;3.0211
299;3.0914
302;3.0532
305;2.8387
308;2.724
311;2.6971
314;2.7158
317;2.7539
320;2.803
323;2.8451
326;2.8522
329;2.8342
332;2.834
335;2.8277
338;2.8071
341;2.794
344;2.8061
347;2.7724
350;2.7516
353;2.7499
356;2.7298
359;2.6205
362;2.32
365;1.7645
368;1.2754
371;0.8719
374;0.5913
377;0.4151
380;0.3094
383;0.2405
386;0.1995
389;0.1744
392;0.1584
395;0.1467
398;0.1379
401;0.1316
404;0.1261
407;0.1215
410;0.1175
413;0.1143
416;0.1111
419;0.1084
422;0.1055
425;0.103
428;0.101
431;0.0981
434;0.0952
437;0.0934
440;0.091
443;0.0886
446;0.0862
449;0.0838
452;0.0814
455;0.079
458;0.0763
461;0.0745
464;0.0716
467;0.0693
470;0.0665
473;0.0641
476;0.0613
479;0.0592
482;0.0563
485;0.054
488;0.0517
491;0.0494
494;0.0466
497;0.0449
500;0.0428
503;0.0406
506;0.0386
509;0.0365
512;0.035
515;0.0327
518;0.0316
521;0.0294
524;0.0283
527;0.0269
530;0.0256
533;0.0243
536;0.0228
539;0.0221
542;0.0209
545;0.0198
548;0.0195
551;0.0178
554;0.0175
557;0.0167
560;0.0157
563;0.0151
566;0.0155
569;0.0148
572;0.0135
575;0.0133
578;0.0135
581;0.013
584;0.0118
587;0.0115
590;0.012
593;0.0116
596;0.0119
599;0.0105
602;0.0105
605;0.0101
608;0.0098
611;0.0092
614;0.0093
617;0.0088
620;0.0081
623;0.0084
626;0.008
629;0.0074
632;0.0079
635;0.0077
638;0.0071
641;0.0074
644;0.007
647;0.0066
650;0.0065
653;0.0064
656;0.0074
659;0.0059
662;0.0056
665;0.0058
668;0.006
671;0.0072
674;0.0057
677;0.006
680;0.0058
683;0.0058
686;0.0065
689;0.006
692;0.0054
695;0.0052
698;0.0057
701;0.0049
704;0.0051
707;0.0049
710;0.0048
713;0.0045
716;0.0045
719;0.0042
722;0.0041
725;0.0038
728;0.0044
731;0.0041
734;0.0043
737;0.0058
740;0.0051
743;0.0038
746;0.0045
749;0.0035
752;0.0039
755;0.0045
758;0.0035
761;0.0039
764;0.0034
767;0.0031
770;0.0037
773;0.0045
776;0.0035
779;0.0032
782;0.0025
785;0.0035
788;0.0029
791;0.0026
794;0.0029
797;0.0029
800;0.0048

File: 50min.csv
50min.csv;;Kemi1\Kemi01;29-09-2017 13:54:44;GENESYS 10S UV-Vis;2L9T161212;4.006
nm;A
200;2.9624
203;3.1141
206;3.1937
209;3.1552
212;3.1362
215;3.0911
218;3.0727
221;3.0626
224;3.0905
227;3.1087
230;3.1324
233;3.0941
236;3.0887
239;3.0712
242;3.0914
245;3.0625
248;3.0699
251;3.0218
254;2.9939
257;2.9691
260;2.9855
263;2.9331
266;2.8994
269;2.8734
272;2.8832
275;2.8579
278;2.8588
281;2.86
284;2.8724
287;2.8992
290;2.903
293;2.9143
296;2.9622
299;2.997
302;2.7366
305;2.3747
308;2.2841
311;2.3182
314;2.4232
317;2.5464
320;2.6672
323;2.7664
326;2.8047
329;2.8005
332;2.8082
335;2.8009
338;2.7895
341;2.7714
344;2.7854
347;2.7569
350;2.7343
353;2.7325
356;2.719
359;2.5993
362;2.288
365;1.7329
368;1.2465
371;0.8467
374;0.5694
377;0.3958
380;0.2918
383;0.2246
386;0.1848
389;0.1609
392;0.1452
395;0.1344
398;0.1255
401;0.1199
404;0.1143
407;0.1099
410;0.1063
413;0.1029
416;0.0999
419;0.097
422;0.0944
425;0.0918
428;0.0893
431;0.0867
434;0.0843
437;0.0822
440;0.0793
443;0.0772
446;0.0747
449;0.0728
452;0.0705
455;0.0681
458;0.0662
461;0.0641
464;0.0614
467;0.06
470;0.057
473;0.0553
476;0.0534
479;0.0507
482;0.0488
485;0.0468
488;0.045
491;0.0429
494;0.041
497;0.0387
500;0.0372
503;0.0356
506;0.0337
509;0.0322
512;0.0309
515;0.0294
518;0.0283
521;0.0266
524;0.0253
527;0.0246
530;0.0233
533;0.0225
536;0.0212
539;0.0204
542;0.0195
545;0.0187
548;0.0186
551;0.0174
554;0.0167
557;0.0155
560;0.0153
563;0.0147
566;0.0156
569;0.0145
572;0.0133
575;0.0143
578;0.0126
581;0.0124
584;0.0118
587;0.0114
590;0.012
593;0.0104
596;0.0108
599;0.0106
602;0.0104
605;0.0107
608;0.0097
611;0.0095
614;0.009
617;0.0091
620;0.0094
623;0.0087
626;0.0083
629;0.0086
632;0.0088
635;0.008
638;0.0076
641;0.0066
644;0.0069
647;0.0068
650;0.0067
653;0.0075
656;0.0069
659;0.0066
662;0.006
665;0.0069
668;0.0064
671;0.007
674;0.0065
677;0.0063
680;0.006
683;0.0077
686;0.0066
689;0.0064
692;0.0068
695;0.0054
698;0.0054
701;0.0048
704;0.0051
707;0.0057
710;0.0061
713;0.0051
716;0.0056
719;0.0051
722;0.0042
725;0.0041
728;0.0043
731;0.0055
734;0.005
737;0.0051
740;0.0047
743;0.0043
746;0.0056
749;0.0042
752;0.0046
755;0.005
758;0.0048
761;0.0045
764;0.0042
767;0.0047
770;0.0042
773;0.0039
776;0.0041
779;0.0043
782;0.0039
785;0.0042
788;0.0031
791;0.0045
794;0.0041
797;0.0038
800;0.0054

File: 60min.csv
60min.csv;;Kemi1\Kemi01;29-09-2017 13:59:14;GENESYS 10S UV-Vis;2L9T161212;4.006
nm;A
200;2.97
203;3.1197
206;3.1916
209;3.1609
212;3.1211
215;3.0969
218;3.0677
221;3.0515
224;3.0765
227;3.1029
230;3.1373
233;3.0939
236;3.0905
239;3.0771
242;3.0895
245;3.0583
248;3.0689
251;3.0213
254;2.9988
257;2.9639
260;2.9746
263;2.9238
266;2.8884
269;2.8623
272;2.8632
275;2.8404
278;2.8412
281;2.8444
284;2.8517
287;2.8847
290;2.8783
293;2.8938
296;2.9248
299;2.8878
302;2.3364
305;1.9601
308;1.9049
311;1.9935
314;2.16
317;2.3506
320;2.535
323;2.6878
326;2.7605
329;2.7779
332;2.7989
335;2.7919
338;2.7847
341;2.7701
344;2.7852
347;2.7493
350;2.7334
353;2.7299
356;2.7078
359;2.5716
362;2.244
365;1.6883
368;1.2135
371;0.8259
374;0.5574
377;0.389
380;0.2888
383;0.2247
386;0.1864
389;0.1634
392;0.1479
395;0.1373
398;0.1286
401;0.1225
404;0.1173
407;0.1131
410;0.1093
413;0.106
416;0.1028
419;0.0999
422;0.0974
425;0.0952
428;0.093
431;0.0902
434;0.0881
437;0.0861
440;0.0837
443;0.0817
446;0.0792
449;0.0773
452;0.0752
455;0.0733
458;0.0713
461;0.0687
464;0.0673
467;0.0649
470;0.0631
473;0.0605
476;0.0584
479;0.0557
482;0.0537
485;0.0516
488;0.0499
491;0.0475
494;0.0457
497;0.0439
500;0.0407
503;0.0399
506;0.0369
509;0.036
512;0.0336
515;0.0322
518;0.03
521;0.0294
524;0.0278
527;0.0257
530;0.0255
533;0.0239
536;0.0223
539;0.0212
542;0.0205
545;0.02
548;0.0192
551;0.0177
554;0.017
557;0.016
560;0.016
563;0.015
566;0.0148
569;0.015
572;0.0138
575;0.0128
578;0.013
581;0.0123
584;0.0119
587;0.0113
590;0.0116
593;0.0116
596;0.0109
599;0.0104
602;0.01
605;0.0097
608;0.0099
611;0.0095
614;0.0096
617;0.0088
620;0.0089
623;0.0088
626;0.0085
629;0.0081
632;0.0081
635;0.0074
638;0.0071
641;0.0072
644;0.0064
647;0.0065
650;0.0069
653;0.0067
656;0.0062
659;0.0058
662;0.0066
665;0.0068
668;0.0057
671;0.0064
674;0.0071
677;0.0067
680;0.0062
683;0.0069
686;0.0057
689;0.007
692;0.0056
695;0.0057
698;0.0077
701;0.007
704;0.0048
707;0.0042
710;0.0039
713;0.004
716;0.0047
719;0.0042
722;0.0043
725;0.0043
728;0.0055
731;0.0048
734;0.0058
737;0.0055
740;0.0041
743;0.0042
746;0.0046
749;0.0034
752;0.0039
755;0.0041
758;0.0042
761;0.0043
764;0.0038
767;0.0029
770;0.0035
773;0.0031
776;0.0031
779;0.0032
782;0.0035
785;0.0036
788;0.0035
791;0.0029
794;0.002
797;0.0028
800;0.0043

File: 70min.csv
70min.csv;;Kemi1\Kemi01;29-09-2017 14:03:50;GENESYS 10S UV-Vis;2L9T161212;4.006
nm;A
200;2.9666
203;3.1288
206;3.1791
209;3.1704
212;3.1147
215;3.0668
218;3.0488
221;3.0385
224;3.0731
227;3.1016
230;3.1297
233;3.0955
236;3.0927
239;3.0726
242;3.0885
245;3.0584
248;3.0626
251;3.0161
254;2.9893
257;2.9547
260;2.9607
263;2.9107
266;2.876
269;2.8493
272;2.8499
275;2.829
278;2.8289
281;2.8309
284;2.8401
287;2.8593
290;2.8624
293;2.8745
296;2.9028
299;2.8435
302;2.2114
305;1.8207
308;1.7863
311;1.9084
314;2.1144
317;2.3397
320;2.5427
323;2.701
326;2.7669
329;2.7797
332;2.7981
335;2.7914
338;2.7784
341;2.7643
344;2.7778
347;2.7491
350;2.7317
353;2.7286
356;2.7113
359;2.608
362;2.3178
365;1.7579
368;1.2582
371;0.8464
374;0.5625
377;0.3858
380;0.2807
383;0.2149
386;0.1769
389;0.1547
392;0.1403
395;0.1312
398;0.1234
401;0.1177
404;0.1139
407;0.1098
410;0.1064
413;0.1036
416;0.1011
419;0.0983
422;0.0961
425;0.0941
428;0.0921
431;0.0903
434;0.0884
437;0.0861
440;0.084
443;0.0824
446;0.0802
449;0.0787
452;0.0766
455;0.0746
458;0.0726
461;0.0704
464;0.0689
467;0.0669
470;0.0647
473;0.0624
476;0.0596
479;0.0578
482;0.0548
485;0.0528
488;0.0508
491;0.0486
494;0.0468
497;0.0441
500;0.042
503;0.0391
506;0.037
509;0.0358
512;0.0345
515;0.0323
518;0.0308
521;0.0284
524;0.0269
527;0.026
530;0.0256
533;0.024
536;0.0224
539;0.0213
542;0.0205
545;0.0196
548;0.0193
551;0.018
554;0.0169
557;0.0162
560;0.0156
563;0.0153
566;0.0144
569;0.0141
572;0.0145
575;0.013
578;0.0129
581;0.0118
584;0.0117
587;0.0117
590;0.0107
593;0.0114
596;0.0109
599;0.0111
602;0.0111
605;0.0103
608;0.0102
611;0.0096
614;0.0092
617;0.0095
620;0.0096
623;0.0088
626;0.0083
629;0.0087
632;0.0081
635;0.0079
638;0.0082
641;0.0072
644;0.0074
647;0.0071
650;0.0072
653;0.0072
656;0.007
659;0.0066
662;0.0073
665;0.0061
668;0.0072
671;0.0066
674;0.0066
677;0.0062
680;0.0063
683;0.0069
686;0.0061
689;0.0058
692;0.0053
695;0.0059
698;0.0055
701;0.0058
704;0.0049
707;0.0043
710;0.0041
713;0.0048
716;0.0044
719;0.0035
722;0.0042
725;0.0036
728;0.004
731;0.0045
734;0.0038
737;0.0045
740;0.0044
743;0.005
746;0.0044
749;0.0043
752;0.0043
755;0.0039
758;0.0048
761;0.004
764;0.004
767;0.0033
770;0.0037
773;0.0038
776;0.0037
779;0.0028
782;0.0036
785;0.0025
788;0.004
791;0.0029
794;0.0032
797;0.0036
800;0.0052

File: 80min.csv
80min.csv;;Kemi1\Kemi01;29-09-2017 14:08:09;GENESYS 10S UV-Vis;2L9T161212;4.006
nm;A
200;2.9582
203;3.1286
206;3.1832
209;3.1707
212;3.1311
215;3.0901
218;3.0495
221;3.0402
224;3.0642
227;3.0966
230;3.124
233;3.0871
236;3.0874
239;3.0713
242;3.0822
245;3.0466
248;3.0614
251;3.0102
254;2.9821
257;2.9385
260;2.9494
263;2.8952
266;2.8645
269;2.8385
272;2.8394
275;2.8129
278;2.8165
281;2.82
284;2.8279
287;2.8626
290;2.847
293;2.862
296;2.8873
299;2.8053
302;2.1161
305;1.7284
308;1.7051
311;1.8443
314;2.0674
317;2.3091
320;2.5292
323;2.6959
326;2.7665
329;2.7759
332;2.7928
335;2.7949
338;2.7838
341;2.7644
344;2.7853
347;2.7527
350;2.7339
353;2.7258
356;2.7139
359;2.6141
362;2.3349
365;1.7739
368;1.2695
371;0.8543
374;0.5659
377;0.3878
380;0.282
383;0.2153
386;0.1766
389;0.1547
392;0.1401
395;0.1305
398;0.1222
401;0.1173
404;0.1128
407;0.1089
410;0.1053
413;0.1023
416;0.0995
419;0.097
422;0.0947
425;0.0926
428;0.0906
431;0.0887
434;0.0867
437;0.0848
440;0.0826
443;0.0808
446;0.0786
449;0.077
452;0.0751
455;0.0729
458;0.0713
461;0.0693
464;0.0672
467;0.0651
470;0.063
473;0.0611
476;0.0591
479;0.0568
482;0.0542
485;0.0519
488;0.05
491;0.0473
494;0.0454
497;0.0434
500;0.0414
503;0.04
506;0.0376
509;0.035
512;0.0341
515;0.0317
518;0.0307
521;0.0288
524;0.0275
527;0.0266
530;0.0252
533;0.0247
536;0.023
539;0.0209
542;0.0205
545;0.0204
548;0.0192
551;0.0177
554;0.017
557;0.0165
560;0.0156
563;0.0151
566;0.0147
569;0.0141
572;0.0135
575;0.0134
578;0.0132
581;0.0121
584;0.0129
587;0.0113
590;0.012
593;0.0105
596;0.0116
599;0.0114
602;0.01
605;0.0112
608;0.0096
611;0.0101
614;0.0094
617;0.0101
620;0.009
623;0.0085
626;0.0093
629;0.0092
632;0.0083
635;0.0083
638;0.0083
641;0.0081
644;0.0074
647;0.0077
650;0.0078
653;0.0082
656;0.0075
659;0.0063
662;0.0064
665;0.0066
668;0.0081
671;0.0069
674;0.0067
677;0.0071
680;0.0078
683;0.0069
686;0.0067
689;0.006
692;0.0066
695;0.0075
698;0.0064
701;0.0061
704;0.0057
707;0.0054
710;0.0051
713;0.0051
716;0.005
719;0.0052
722;0.0049
725;0.0041
728;0.0047
731;0.0054
734;0.0049
737;0.0049
740;0.0043
743;0.0057
746;0.0043
749;0.0045
752;0.0046
755;0.0041
758;0.0044
761;0.0045
764;0.004
767;0.0048
770;0.0038
773;0.004
776;0.0041
779;0.0043
782;0.0032
785;0.0041
788;0.0027
791;0.0043
794;0.0044
797;0.004
800;0.0055

File: 90min.csv
90min.csv;;Kemi1\Kemi01;29-09-2017 14:12:59;GENESYS 10S UV-Vis;2L9T161212;4.006
nm;A
200;2.9552
203;3.1126
206;3.1898
209;3.1611
212;3.121
215;3.077
218;3.0483
221;3.0317
224;3.0731
227;3.0925
230;3.1175
233;3.0765
236;3.0829
239;3.0627
242;3.0813
245;3.0493
248;3.0571
251;3.0054
254;2.972
257;2.9398
260;2.9426
263;2.8891
266;2.8575
269;2.8345
272;2.833
275;2.8053
278;2.811
281;2.8159
284;2.825
287;2.8454
290;2.845
293;2.8518
296;2.8778
299;2.7278
302;1.973
305;1.6023
308;1.5851
311;1.7214
314;1.9416
317;2.1873
320;2.4242
323;2.6181
326;2.7171
329;2.7579
332;2.7735
335;2.7753
338;2.7698
341;2.7546
344;2.7721
347;2.7388
350;2.7213
353;2.7139
356;2.6957
359;2.5636
362;2.2341
365;1.6778
368;1.1984
371;0.8083
374;0.5381
377;0.371
380;0.2722
383;0.2095
386;0.1734
389;0.1524
392;0.1385
395;0.1291
398;0.1213
401;0.1166
404;0.1114
407;0.1067
410;0.1036
413;0.1009
416;0.0977
419;0.0957
422;0.0935
425;0.0913
428;0.0892
431;0.0869
434;0.0851
437;0.0833
440;0.0809
443;0.0793
446;0.077
449;0.0753
452;0.0737
455;0.0717
458;0.0699
461;0.0679
464;0.066
467;0.0637
470;0.0621
473;0.0597
476;0.0579
479;0.0554
482;0.053
485;0.0511
488;0.0493
491;0.0468
494;0.0453
497;0.0437
500;0.041
503;0.0391
506;0.0376
509;0.0348
512;0.0341
515;0.0316
518;0.0308
521;0.0296
524;0.0278
527;0.0259
530;0.0252
533;0.0233
536;0.023
539;0.022
542;0.0206
545;0.0204
548;0.0192
551;0.0179
554;0.0167
557;0.0166
560;0.0172
563;0.0155
566;0.0153
569;0.0142
572;0.0145
575;0.014
578;0.0123
581;0.012
584;0.013
587;0.0134
590;0.0119
593;0.0116
596;0.0111
599;0.0107
602;0.0113
605;0.0114
608;0.0109
611;0.0094
614;0.0102
617;0.0093
620;0.0088
623;0.0092
626;0.0102
629;0.0098
632;0.0093
635;0.0073
638;0.0087
641;0.0077
644;0.0073
647;0.007
650;0.0066
653;0.0069
656;0.0067
659;0.0082
662;0.0064
665;0.0065
668;0.0073
671;0.0078
674;0.0068
677;0.007
680;0.0061
683;0.006
686;0.0077
689;0.0064
692;0.0059
695;0.005
698;0.0061
701;0.0056
704;0.0054
707;0.0054
710;0.0048
713;0.0052
716;0.0055
719;0.0048
722;0.005
725;0.0045
728;0.0042
731;0.0041
734;0.0053
737;0.004
740;0.0043
743;0.0045
746;0.0032
749;0.0031
752;0.0046
755;0.004
758;0.0044
761;0.0043
764;0.0044
767;0.0034
770;0.0045
773;0.003
776;0.0024
779;0.0046
782;0.004
785;0.0035
788;0.0035
791;0.0033
794;0.0033
797;0.0038
800;0.0053

File: 100min.csv
100min.csv;;Kemi1\Kemi01;29-09-2017 14:17:10;GENESYS 10S UV-Vis;2L9T161212;4.006
nm;A
200;2.954
203;3.109
206;3.1904
209;3.163
212;3.1241
215;3.0788
218;3.0419
221;3.0341
224;3.0767
227;3.0967
230;3.1283
233;3.0906
236;3.0811
239;3.0704
242;3.0841
245;3.0555
248;3.0609
251;3.0118
254;2.9776
257;2.9446
260;2.9524
263;2.8963
266;2.8613
269;2.837
272;2.8376
275;2.8123
278;2.8145
281;2.8153
284;2.8246
287;2.8484
290;2.847
293;2.8538
296;2.8801
299;2.7458
302;1.9918
305;1.6093
308;1.5937
311;1.7384
314;1.9685
317;2.2244
320;2.4603
323;2.6516
326;2.7428
329;2.7649
332;2.7802
335;2.7821
338;2.7705
341;2.7559
344;2.7725
347;2.7467
350;2.7303
353;2.7214
356;2.7054
359;2.5954
362;2.2935
365;1.7343
368;1.2435
371;0.8376
374;0.5564
377;0.3828
380;0.279
383;0.2144
386;0.1765
389;0.155
392;0.1403
395;0.1307
398;0.1232
401;0.1176
404;0.1132
407;0.1093
410;0.1061
413;0.1032
416;0.101
419;0.0986
422;0.0967
425;0.0948
428;0.0925
431;0.0905
434;0.0887
437;0.0868
440;0.0847
443;0.0831
446;0.0812
449;0.0795
452;0.077
455;0.0754
458;0.0736
461;0.0718
464;0.0697
467;0.0677
470;0.0651
473;0.0626
476;0.0605
479;0.0581
482;0.0557
485;0.0542
488;0.0515
491;0.0489
494;0.0473
497;0.0452
500;0.0419
503;0.0402
506;0.0376
509;0.0353
512;0.0346
515;0.0327
518;0.0315
521;0.0281
524;0.0272
527;0.0258
530;0.0245
533;0.0233
536;0.0216
539;0.0204
542;0.0202
545;0.0185
548;0.0175
551;0.0167
554;0.0162
557;0.0157
560;0.0146
563;0.0144
566;0.0137
569;0.0134
572;0.0135
575;0.0121
578;0.0123
581;0.0116
584;0.0107
587;0.0103
590;0.0103
593;0.01
596;0.0103
599;0.01
602;0.01
605;0.0099
608;0.0096
611;0.0089
614;0.0084
617;0.0079
620;0.0081
623;0.0087
626;0.0085
629;0.0078
632;0.0074
635;0.0075
638;0.0069
641;0.007
644;0.0066
647;0.0063
650;0.0065
653;0.006
656;0.0054
659;0.0056
662;0.0059
665;0.006
668;0.0055
671;0.0066
674;0.0058
677;0.0054
680;0.0058
683;0.0063
686;0.0069
689;0.0061
692;0.0057
695;0.0061
698;0.0062
701;0.0053
704;0.0058
707;0.0044
710;0.0059
713;0.0048
716;0.0052
719;0.0054
722;0.0057
725;0.0054
728;0.0046
731;0.004
734;0.0051
737;0.0043
740;0.0046
743;0.0042
746;0.0039
749;0.006
752;0.0052
755;0.0045
758;0.005
761;0.005
764;0.0045
767;0.0044
770;0.004
773;0.0052
776;0.0042
779;0.0042
782;0.0042
785;0.0043
788;0.0045
791;0.004
794;0.0039
797;0.005
800;0.0063