Folder: graphene-production/data/raw_data/uvvis/20171026_Azodye

File: 171026_Azo_A_1.0mM.csv
171026_Azo_A.csv;;Kemi1\Kemi01;26-10-2017 11:08:17;GENESYS 10S UV-Vis;2L9T161212;4.006
nm;A
200;3.5501
203;3.7821
206;3.806
209;3.8374
212;3.9323
215;3.9521
218;3.969
221;4.0716
224;4.2664
227;4.4592
230;4.6284
233;4.1997
236;4.2515
239;4.2157
242;4.599
245;4.4824
248;4.5862
251;4.1974
254;4.1225
257;4.2435
260;4.5268
263;4.2885
266;4.239
269;4.3118
272;4.5607
275;4.2461
278;4.25
281;4.1616
284;4.1819
287;9.9999
290;4.1342
293;4.1577
296;4.2497
299;4.2083
302;4.273
305;4.3332
308;4.2173
311;4.2271
314;4.1688
317;4.0763
320;4.1101
323;4.2155
326;4.0498
329;4.115
332;4.0077
335;3.9761
338;4.0208
341;4.082
344;4.1932
347;4.1081
350;4.0058
353;4.1011
356;4.027
359;3.9606
362;3.9497
365;3.5355
368;3.2422
371;3.0014
374;2.8311
377;2.7481
380;2.7417
383;2.7957
386;2.9039
389;3.0348
392;3.1898
395;3.3557
398;3.5013
401;3.6243
404;3.8013
407;3.8378
410;3.8102
413;3.892
416;3.9124
419;3.9392
422;4.0146
425;3.9625
428;3.7946
431;3.7375
434;3.7031
437;3.7324
440;3.7832
443;3.7521
446;3.7812
449;3.7566
452;3.8129
455;3.831
458;3.861
461;4.001
464;3.9439
467;3.9817
470;3.9936
473;3.9661
476;4.033
479;4.0685
482;4.3704
485;4.2268
488;4.3547
491;4.2343
494;4.114
497;4.1251
500;4.0399
503;4.0469
506;3.9888
509;3.9911
512;3.9803
515;3.9254
518;4.0206
521;3.9898
524;3.9081
527;3.9154
530;3.7918
533;3.6941
536;3.5152
539;3.3523
542;3.166
545;2.9635
548;2.7689
551;2.5551
554;2.3517
557;2.1417
560;1.9399
563;1.7532
566;1.5672
569;1.3934
572;1.2322
575;1.0857
578;0.9549
581;0.8325
584;0.7252
587;0.6278
590;0.5412
593;0.4641
596;0.3988
599;0.3444
602;0.2929
605;0.2509
608;0.2147
611;0.1832
614;0.1573
617;0.1355
620;0.1158
623;0.0993
626;0.0868
629;0.0758
632;0.066
635;0.0577
638;0.0503
641;0.045
644;0.04
647;0.0354
650;0.0318
653;0.0299
656;0.027
659;0.0254
662;0.023
665;0.0215
668;0.0207
671;0.0192
674;0.0181
677;0.017
680;0.0162
683;0.0163
686;0.0155
689;0.0146
692;0.0136
695;0.0124
698;0.013
701;0.0115
704;0.0116
707;0.0105
710;0.0099
713;0.0099
716;0.0104
719;0.0094
722;0.0096
725;0.0093
728;0.0087
731;0.0082
734;0.0089
737;0.0077
740;0.0078
743;0.0079
746;0.0071
749;0.0072
752;0.0076
755;0.0071
758;0.0076
761;0.0073
764;0.0072
767;0.0057
770;0.0059
773;0.0059
776;0.0065
779;0.0068
782;0.0064
785;0.0056
788;0.0056
791;0.0054
794;0.0056
797;0.0059
800;0.006

File: 171026_Azo_B_0.5mM.csv
171026_Azo_B.csv;;Kemi1\Kemi01;26-10-2017 11:02:57;GENESYS 10S UV-Vis;2L9T161212;4.006
nm;A
200;3.469
203;3.6262
206;3.7368
209;3.7089
212;3.8449
215;3.8929
218;3.966
221;4.0366
224;4.3023
227;4.3084
230;4.5289
233;4.1428
236;4.1488
239;4.1243
242;4.4561
245;4.3604
248;4.5294
251;4.1608
254;4.3756
257;4.1761
260;4.3971
263;4.1758
266;4.1618
269;4.1587
272;4.333
275;4.1582
278;4.1895
281;4.0807
284;4.0585
287;4.1768
290;4.1089
293;4.0899
296;4.1749
299;3.9542
302;3.4229
305;3.0667
308;2.9652
311;2.9712
314;3.1018
317;3.2614
320;3.4442
323;3.6752
326;3.8163
329;3.8849
332;3.8927
335;4.0157
338;3.9322
341;3.9083
344;4.033
347;3.9408
350;3.8529
353;3.9002
356;3.758
359;3.4211
362;2.9679
365;2.479
368;2.1007
371;1.8084
374;1.6166
377;1.513
380;1.4751
383;1.4835
386;1.5303
389;1.6001
392;1.6885
395;1.7891
398;1.8994
401;2.0053
404;2.112
407;2.2108
410;2.3068
413;2.3878
416;2.4597
419;2.522
422;2.5675
425;2.5959
428;2.6063
431;2.6041
434;2.5971
437;2.5778
440;2.5638
443;2.5314
446;2.5026
449;2.467
452;2.4325
455;2.4
458;2.3725
461;2.3527
464;2.3358
467;2.3292
470;2.3299
473;2.3415
476;2.3605
479;2.3826
482;2.4141
485;2.4368
488;2.4638
491;2.4839
494;2.4957
497;2.5072
500;2.5051
503;2.496
506;2.4824
509;2.4585
512;2.4266
515;2.385
518;2.3408
521;2.2783
524;2.21
527;2.1366
530;2.0578
533;1.9599
536;1.8627
539;1.761
542;1.6562
545;1.5443
548;1.435
551;1.3236
554;1.2167
557;1.1086
560;1.0043
563;0.906
566;0.8103
569;0.7201
572;0.6373
575;0.5612
578;0.4932
581;0.4296
584;0.3745
587;0.3239
590;0.2791
593;0.239
596;0.2052
599;0.1767
602;0.1502
605;0.129
608;0.1092
611;0.0935
614;0.08
617;0.0683
620;0.0587
623;0.05
626;0.0428
629;0.038
632;0.0331
635;0.0288
638;0.0256
641;0.0218
644;0.0193
647;0.0174
650;0.0158
653;0.0142
656;0.0131
659;0.0126
662;0.0116
665;0.0103
668;0.0099
671;0.0091
674;0.0083
677;0.008
680;0.0069
683;0.0075
686;0.0071
689;0.0068
692;0.0075
695;0.006
698;0.0062
701;0.0055
704;0.0052
707;0.0046
710;0.0052
713;0.0051
716;0.0043
719;0.0048
722;0.0046
725;0.0042
728;0.0044
731;0.0038
734;0.0044
737;0.0043
740;0.0036
743;0.0041
746;0.0039
749;0.0031
752;0.0033
755;0.0035
758;0.0032
761;0.0037
764;0.0032
767;0.0029
770;0.0029
773;0.003
776;0.0029
779;0.0024
782;0.003
785;0.0024
788;0.0023
791;0.002
794;0.0014
797;0.0027
800;0.0025

File: 171026_Azo_C_0.25mM.csv
171016_Azo_C.csv;;Kemi1\Kemi01;26-10-2017 10:57:23;GENESYS 10S UV-Vis;2L9T161212;4.006
nm;A
200;3.4787
203;3.6077
206;3.6374
209;3.6372
212;3.6763
215;3.7058
218;3.7502
221;3.8093
224;3.9077
227;4.0407
230;4.1373
233;3.9886
236;4.0186
239;3.9687
242;4.1007
245;4.0528
248;4.1663
251;3.9683
254;3.9083
257;3.8692
260;4.0214
263;3.8305
266;3.8318
269;3.8269
272;3.8675
275;3.8004
278;3.806
281;3.8454
284;3.8197
287;3.8236
290;3.8785
293;3.8369
296;3.861
299;3.2297
302;2.4176
305;2.093
308;2.0429
311;2.1269
314;2.3022
317;2.5171
320;2.7623
323;3.0281
326;3.2353
329;3.4059
332;3.5295
335;3.5787
338;3.5883
341;3.5803
344;3.6426
347;3.5774
350;3.5265
353;3.465
356;3.2924
359;2.8944
362;2.4129
365;1.9075
368;1.5186
371;1.218
374;1.021
377;0.9094
380;0.8587
383;0.8467
386;0.8644
389;0.8994
392;0.9475
395;1.0041
398;1.0672
401;1.1269
404;1.1873
407;1.2453
410;1.3003
413;1.3476
416;1.3896
419;1.4244
422;1.4506
425;1.4678
428;1.4771
431;1.4791
434;1.4756
437;1.4667
440;1.4536
443;1.4366
446;1.4174
449;1.3976
452;1.377
455;1.3574
458;1.3402
461;1.327
464;1.3177
467;1.3136
470;1.3149
473;1.3215
476;1.3319
479;1.346
482;1.3614
485;1.3756
488;1.3908
491;1.4041
494;1.413
497;1.4189
500;1.4201
503;1.4164
506;1.4087
509;1.3955
512;1.3767
515;1.3529
518;1.324
521;1.2902
524;1.2505
527;1.207
530;1.1616
533;1.1062
536;1.0509
539;0.9933
542;0.9331
545;0.8706
548;0.8085
551;0.7458
554;0.6857
557;0.6249
560;0.5653
563;0.5103
566;0.4561
569;0.4052
572;0.3585
575;0.3155
578;0.2768
581;0.2415
584;0.2101
587;0.1814
590;0.1561
593;0.1336
596;0.1144
599;0.0987
602;0.0835
605;0.0712
608;0.0608
611;0.0519
614;0.0438
617;0.0379
620;0.032
623;0.0278
626;0.0241
629;0.0207
632;0.0176
635;0.0156
638;0.0134
641;0.0122
644;0.0108
647;0.0095
650;0.0088
653;0.0083
656;0.0072
659;0.0067
662;0.0058
665;0.0062
668;0.0057
671;0.0055
674;0.0052
677;0.0048
680;0.0048
683;0.0051
686;0.004
689;0.0052
692;0.0046
695;0.0044
698;0.0041
701;0.0039
704;0.0038
707;0.0037
710;0.0031
713;0.0037
716;0.0035
719;0.0033
722;0.0029
725;0.0026
728;0.0037
731;0.0028
734;0.0035
737;0.0031
740;0.0033
743;0.0032
746;0.0024
749;0.0031
752;0.0032
755;0.0027
758;0.0026
761;0.0028
764;0.0027
767;0.0023
770;0.0031
773;0.0026
776;0.0024
779;0.0027
782;0.002
785;0.0024
788;0.0015
791;0.0014
794;0.0023
797;0.0028
800;0.0022

File: 171026_Azo_D_0.05mM.csv
171026_Azo_D.csv;;Kemi1\Kemi01;26-10-2017 10:51:49;GENESYS 10S UV-Vis;2L9T161212;4.006
nm;A
200;3.0287
203;3.1588
206;3.1738
209;3.1079
212;3.1028
215;3.0937
218;3.1027
221;3.1066
224;3.1645
227;3.1987
230;3.2308
233;3.1986
236;3.1962
239;3.1756
242;3.193
245;3.1539
248;3.1631
251;3.101
254;3.05
257;3.0111
260;3.0134
263;2.9613
266;2.934
269;2.9155
272;2.917
275;2.8987
278;2.901
281;2.908
284;2.9089
287;2.9282
290;2.9216
293;2.9152
296;2.902
299;2.2283
302;1.3894
305;1.119
308;1.1386
311;1.2839
314;1.5101
317;1.7649
320;2.0387
323;2.3172
326;2.5359
329;2.6865
332;2.7818
335;2.8203
338;2.8322
341;2.8254
344;2.8434
347;2.8097
350;2.781
353;2.746
356;2.641
359;2.3401
362;1.883
365;1.3596
368;0.9495
371;0.6319
374;0.4199
377;0.2933
380;0.2235
383;0.1846
386;0.1678
389;0.1634
392;0.1656
395;0.1716
398;0.1799
401;0.1886
404;0.1974
407;0.206
410;0.2144
413;0.2213
416;0.2276
419;0.2325
422;0.236
425;0.2379
428;0.2388
431;0.2383
434;0.2379
437;0.2366
440;0.2345
443;0.2319
446;0.2293
449;0.2266
452;0.2239
455;0.2213
458;0.2195
461;0.2177
464;0.217
467;0.2169
470;0.2177
473;0.2194
476;0.2214
479;0.2241
482;0.2271
485;0.2295
488;0.2319
491;0.2347
494;0.2359
497;0.2368
500;0.2366
503;0.2363
506;0.2345
509;0.2319
512;0.2284
515;0.2242
518;0.2193
521;0.213
524;0.2058
527;0.1981
530;0.1901
533;0.1804
536;0.171
539;0.1612
542;0.1509
545;0.1405
548;0.1302
551;0.1202
554;0.1099
557;0.1002
560;0.0902
563;0.0817
566;0.0728
569;0.0648
572;0.0571
575;0.0506
578;0.0441
581;0.0381
584;0.0338
587;0.029
590;0.0252
593;0.0219
596;0.0188
599;0.0163
602;0.0142
605;0.0121
608;0.0108
611;0.0091
614;0.0077
617;0.0066
620;0.0058
623;0.0056
626;0.0045
629;0.0044
632;0.0035
635;0.0033
638;0.0026
641;0.0034
644;0.0025
647;0.0026
650;0.0029
653;0.0028
656;0.0024
659;0.0021
662;0.0021
665;0.0015
668;0.0017
671;0.0017
674;0.0014
677;0.0017
680;0.001
683;0.0016
686;0.0016
689;0.0017
692;0.0011
695;0.0017
698;0.0015
701;0.0008
704;0.0011
707;0.0021
710;0.0015
713;0.0015
716;0.0016
719;0.0013
722;0.0012
725;0.0014
728;0.0016
731;0.0009
734;0.0016
737;0.0013
740;0.0016
743;0.0013
746;0.0015
749;0.001
752;0.0013
755;0.0019
758;0.0007
761;0.0018
764;0.0011
767;0.0015
770;0.0015
773;0.0006
776;0.0015
779;0.0009
782;0.0014
785;0.0018
788;0.001
791;0.0014
794;0.0013
797;0.0002
800;0.001