Folder: graphene-production/data/raw_data/uvvis/20170915 Azodye

File: 2-Naphtol.csv
2-Naphtol.csv;;Kemi1\Kemi01;15-09-2017 11:54:14;GENESYS 10S UV-Vis;2L9T161212;4.006
nm;A
200;2.9158
203;3.0642
206;3.0879
209;3.0236
212;2.9751
215;2.9396
218;2.95
221;2.9502
224;2.9749
227;3.0083
230;3.0414
233;3.0142
236;3.0017
239;2.9886
242;3.0075
245;2.9746
248;2.9704
251;2.9088
254;2.8686
257;2.8241
260;2.8171
263;2.7704
266;2.7404
269;2.7244
272;2.7213
275;2.7057
278;2.711
281;2.7165
284;2.7241
287;2.7354
290;2.7424
293;2.7549
296;2.7756
299;2.7672
302;2.3621
305;1.9039
308;1.9334
311;2.1819
314;2.4788
317;2.6514
320;2.7152
323;2.7424
326;2.7356
329;2.7166
332;2.7203
335;2.7081
338;2.6999
341;2.6916
344;2.7042
347;2.6812
350;2.6611
353;2.659
356;2.6629
359;2.6382
362;2.6163
365;2.3018
368;1.734
371;1.1131
374;0.6578
377;0.3761
380;0.2133
383;0.1167
386;0.0648
389;0.0383
392;0.0243
395;0.0171
398;0.0136
401;0.0119
404;0.0107
407;0.0103
410;0.0098
413;0.0097
416;0.0096
419;0.0096
422;0.0094
425;0.0094
428;0.0095
431;0.0092
434;0.0094
437;0.0094
440;0.0096
443;0.0097
446;0.0098
449;0.0097
452;0.0096
455;0.0096
458;0.0093
461;0.009
464;0.0086
467;0.0083
470;0.0079
473;0.0076
476;0.0071
479;0.0069
482;0.0065
485;0.0062
488;0.0063
491;0.0059
494;0.0055
497;0.0056
500;0.0052
503;0.0051
506;0.0047
509;0.0047
512;0.0046
515;0.0043
518;0.0042
521;0.0039
524;0.0038
527;0.0033
530;0.0033
533;0.0034
536;0.0031
539;0.0029
542;0.0027
545;0.0026
548;0.0029
551;0.003
554;0.0023
557;0.0019
560;0.0018
563;0.0026
566;0.0022
569;0.0021
572;0.0016
575;0.0014
578;0.002
581;0.0022
584;0.0017
587;0.0015
590;0.0018
593;0.002
596;0.0015
599;0.0019
602;0.0019
605;0.0014
608;0.0015
611;0.0017
614;0.0008
617;0.0011
620;0.0006
623;0.0014
626;0.0002
629;0.0009
632;0.0008
635;0.0008
638;0.0006
641;0.0009
644;0.0004
647;0.0003
650;0.0007
653;0.0002
656;0.0003
659;0.0011
662;0.0006
665;0.0004
668;0.0006
671;0.0009
674;0.0011
677;0.0007
680;0.0009
683;0.002
686;0.002
689;0.0022
692;0.0028
695;0.002
698;0.0021
701;0.0021
704;0.0014
707;0.0018
710;0.0021
713;0.0011
716;0.0017
719;0.0011
722;0.001
725;0.0012
728;0.0015
731;0.0017
734;0.0023
737;0.0023
740;0.001
743;0.0014
746;0.0017
749;0.0013
752;0.0014
755;0.0017
758;0.0021
761;0.0015
764;0.0011
767;0.0018
770;0.0015
773;0.0013
776;0.0015
779;0.0013
782;0.0011
785;0.0006
788;0.002
791;0.0005
794;0.0018
797;0.0011
800;0.002

File: Azo-dye 1-0.csv
Azo-dye.csv;;Kemi1\Kemi01;15-09-2017 11:48:50;GENESYS 10S UV-Vis;2L9T161212;4.006
nm;A
200;2.9996
203;3.1575
206;3.2074
209;3.1725
212;3.1969
215;3.228
218;3.2379
221;3.244
224;3.2935
227;3.2873
230;3.316
233;3.2476
236;3.2373
239;3.2126
242;3.2353
245;3.2088
248;3.2316
251;3.1918
254;3.1981
257;3.2054
260;3.2632
263;3.2164
266;3.1911
269;3.1644
272;3.1927
275;3.1602
278;3.1615
281;3.1555
284;3.1861
287;3.2295
290;3.2332
293;3.2365
296;3.3288
299;3.4372
302;3.5099
305;3.5111
308;3.5198
311;3.423
314;3.3371
317;3.2344
320;3.1635
323;3.1308
326;3.0794
329;3.0139
332;2.9893
335;2.9725
338;2.9425
341;2.916
344;2.9313
347;2.8941
350;2.8793
353;2.8642
356;2.8461
359;2.7138
362;2.3772
365;1.8276
368;1.3554
371;0.9632
374;0.6839
377;0.5029
380;0.3892
383;0.312
386;0.2621
389;0.2307
392;0.2091
395;0.1949
398;0.1854
401;0.1804
404;0.1769
407;0.1752
410;0.1743
413;0.1738
416;0.1735
419;0.1731
422;0.1721
425;0.1703
428;0.1676
431;0.1635
434;0.1589
437;0.1538
440;0.1488
443;0.1437
446;0.1387
449;0.1338
452;0.1286
455;0.1232
458;0.1178
461;0.1131
464;0.1084
467;0.1045
470;0.102
473;0.1003
476;0.0989
479;0.0989
482;0.0991
485;0.0994
488;0.0999
491;0.1
494;0.1004
497;0.1004
500;0.1001
503;0.099
506;0.0986
509;0.0971
512;0.0952
515;0.0938
518;0.0917
521;0.0893
524;0.0868
527;0.0841
530;0.0811
533;0.0772
536;0.0735
539;0.0696
542;0.0651
545;0.0606
548;0.0559
551;0.0519
554;0.0471
557;0.043
560;0.0389
563;0.0352
566;0.0323
569;0.0289
572;0.0263
575;0.0238
578;0.0218
581;0.0199
584;0.0176
587;0.0166
590;0.0148
593;0.014
596;0.0123
599;0.0115
602;0.01
605;0.0096
608;0.0085
611;0.0081
614;0.0076
617;0.0071
620;0.0065
623;0.0066
626;0.0056
629;0.0052
632;0.0056
635;0.0049
638;0.0051
641;0.0048
644;0.0043
647;0.0044
650;0.0038
653;0.0039
656;0.0039
659;0.0038
662;0.0037
665;0.0039
668;0.0037
671;0.0032
674;0.0034
677;0.0031
680;0.0033
683;0.0032
686;0.0031
689;0.0029
692;0.0031
695;0.0024
698;0.0033
701;0.0031
704;0.0029
707;0.002
710;0.0029
713;0.0025
716;0.0027
719;0.0029
722;0.0028
725;0.0029
728;0.0026
731;0.0027
734;0.0025
737;0.003
740;0.0025
743;0.0027
746;0.0019
749;0.002
752;0.0024
755;0.0022
758;0.0025
761;0.0024
764;0.0019
767;0.0024
770;0.0018
773;0.0022
776;0.0017
779;0.0018
782;0.0022
785;0.0012
788;0.0025
791;0.0016
794;0.002
797;0.002
800;0.0022

File: Azo-dye 1-2.csv
Azo-dye 1-2.csv;;Kemi1\Kemi01;15-09-2017 13:15:47;GENESYS 10S UV-Vis;2L9T161212;4.006
nm;A
200;2.9139
203;3.0486
206;3.0917
209;3.0757
212;3.078
215;3.1036
218;3.1135
221;3.0935
224;3.1285
227;3.1147
230;3.1423
233;3.0717
236;3.0541
239;3.0336
242;3.0683
245;3.0413
248;3.0574
251;3.0129
254;2.953
257;2.8391
260;2.9098
263;2.9405
266;2.9811
269;2.9915
272;2.9991
275;2.9909
278;2.9999
281;2.9882
284;2.9956
287;3.0288
290;3.0388
293;3.0376
296;3.06
299;2.8161
302;2.398
305;2.1151
308;1.924
311;1.776
314;1.6491
317;1.5575
320;1.4993
323;1.4724
326;1.4771
329;1.5081
332;1.5557
335;1.603
338;1.6384
341;1.6535
344;1.6519
347;1.6208
350;1.5457
353;1.4156
356;1.2361
359;1.0166
362;0.7932
365;0.5866
368;0.4245
371;0.2979
374;0.21
377;0.1536
380;0.1195
383;0.0958
386;0.0801
389;0.0704
392;0.064
395;0.0594
398;0.0571
401;0.0548
404;0.054
407;0.0534
410;0.0534
413;0.0532
416;0.0529
419;0.0527
422;0.0525
425;0.0518
428;0.051
431;0.0495
434;0.0481
437;0.0468
440;0.0447
443;0.0431
446;0.0416
449;0.0401
452;0.0387
455;0.0371
458;0.0352
461;0.0338
464;0.0326
467;0.0312
470;0.0305
473;0.0298
476;0.0295
479;0.0292
482;0.0292
485;0.0292
488;0.0295
491;0.0292
494;0.029
497;0.0289
500;0.0285
503;0.0281
506;0.0283
509;0.028
512;0.0278
515;0.0261
518;0.0257
521;0.0252
524;0.0243
527;0.0235
530;0.0225
533;0.0211
536;0.0197
539;0.0184
542;0.0174
545;0.0155
548;0.0144
551;0.0137
554;0.0114
557;0.01
560;0.0089
563;0.0081
566;0.0075
569;0.0067
572;0.0062
575;0.0054
578;0.0036
581;0.0033
584;0.0038
587;0.0035
590;0.0029
593;0.0012
596;0.0022
599;0.0008
602;0.0008
605;0.0007
608;-0.0003
611;0.0009
614;0.0012
617;0.0008
620;0.0004
623;0
626;0.0004
629;0.0001
632;0.0007
635;-0.001
638;0.0005
641;0.0006
644;-0.0014
647;0.0007
650;0.0003
653;0.0001
656;0
659;-0.0004
662;0.0001
665;0.0002
668;-0.0006
671;-0.0006
674;-0.0017
677;-0.0014
680;-0.0019
683;-0.0019
686;-0.0022
689;-0.0009
692;-0.0007
695;-0.002
698;-0.0023
701;-0.0021
704;-0.0007
707;-0.0012
710;-0.0006
713;-0.0016
716;-0.0008
719;-0.0007
722;-0.0023
725;-0.0007
728;-0.0016
731;-0.0005
734;-0.0008
737;-0.0004
740;-0.0012
743;-0.0012
746;-0.0007
749;-0.0009
752;-0.0008
755;-0.0017
758;-0.0009
761;-0.002
764;-0.0015
767;-0.0019
770;-0.0009
773;-0.0012
776;-0.0009
779;-0.0008
782;-0.0009
785;-0.002
788;-0.0006
791;-0.002
794;-0.0017
797;-0.0012
800;-0.0023

File: Azo-dye 1-5.csv
Azo-dye 1-5.csv;;Kemi1\Kemi01;15-09-2017 13:20:28;GENESYS 10S UV-Vis;2L9T161212;4.006
nm;A
200;2.8697
203;2.9865
206;3.0541
209;3.0342
212;3.0421
215;3.049
218;3.0642
221;3.0655
224;3.0773
227;3.0708
230;3.0972
233;3.0334
236;3.0134
239;2.9895
242;3.0116
245;2.9731
248;2.9808
251;2.4163
254;1.7998
257;1.6071
260;1.6568
263;1.7527
266;1.935
269;2.1602
272;2.293
275;2.3479
278;2.4823
281;2.6013
284;2.5312
287;2.3729
290;2.3296
293;2.2683
296;1.9096
299;1.5006
302;1.217
305;1.063
308;0.9623
311;0.8863
314;0.8215
317;0.7757
320;0.7464
323;0.7331
326;0.7362
329;0.7536
332;0.7783
335;0.8042
338;0.8238
341;0.8326
344;0.8316
347;0.8162
350;0.7777
353;0.7092
356;0.6168
359;0.505
362;0.3917
365;0.2889
368;0.2072
371;0.1441
374;0.1005
377;0.0722
380;0.0553
383;0.0433
386;0.036
389;0.0309
392;0.0277
395;0.0258
398;0.0246
401;0.024
404;0.0233
407;0.0232
410;0.0231
413;0.0231
416;0.023
419;0.023
422;0.0231
425;0.0229
428;0.0224
431;0.0219
434;0.0212
437;0.0205
440;0.0196
443;0.0191
446;0.0183
449;0.0176
452;0.0166
455;0.0161
458;0.0155
461;0.0147
464;0.0139
467;0.0135
470;0.0127
473;0.0129
476;0.0129
479;0.0128
482;0.0129
485;0.0129
488;0.0129
491;0.013
494;0.0124
497;0.0124
500;0.0128
503;0.0122
506;0.0116
509;0.012
512;0.0114
515;0.0116
518;0.0115
521;0.0108
524;0.0099
527;0.0101
530;0.0097
533;0.0093
536;0.0083
539;0.0075
542;0.007
545;0.0061
548;0.0061
551;0.0049
554;0.0045
557;0.0036
560;0.0031
563;0.0024
566;0.0017
569;0.0015
572;0.0015
575;0.0007
578;0.0003
581;0.0011
584;0.0001
587;-0.0006
590;-0.0003
593;-0.0004
596;-0.0003
599;-0.0006
602;-0.0004
605;-0.0006
608;-0.0014
611;-0.002
614;-0.0015
617;-0.0012
620;-0.0012
623;-0.0011
626;-0.0018
629;-0.0018
632;-0.0013
635;-0.0009
638;-0.0015
641;-0.0016
644;-0.002
647;-0.0023
650;-0.0019
653;-0.0021
656;-0.002
659;-0.0015
662;-0.0012
665;-0.0016
668;-0.0019
671;-0.0018
674;-0.0016
677;-0.0021
680;-0.0007
683;-0.0012
686;-0.0021
689;-0.0016
692;-0.0017
695;-0.0015
698;-0.0008
701;-0.0014
704;-0.0019
707;-0.0021
710;-0.0026
713;-0.0026
716;-0.0017
719;-0.0027
722;-0.0016
725;-0.0025
728;-0.0021
731;-0.0025
734;-0.0026
737;-0.0018
740;-0.0018
743;-0.003
746;-0.0027
749;-0.002
752;-0.0021
755;-0.0018
758;-0.0016
761;-0.0012
764;-0.0018
767;-0.0014
770;-0.0017
773;-0.0017
776;-0.0018
779;-0.002
782;-0.002
785;-0.002
788;-0.002
791;-0.0013
794;-0.0021
797;-0.0022
800;-0.0011

File: Azo-dye 1-10.csv
Azo-dye 1-10.csv;;Kemi1\Kemi01;15-09-2017 13:24:49;GENESYS 10S UV-Vis;2L9T161212;4.006
nm;A
200;2.7947
203;2.9436
206;2.9943
209;2.9777
212;2.9633
215;2.9694
218;2.9802
221;2.9871
224;3.0064
227;3.0302
230;3.062
233;2.9827
236;2.9556
239;2.9189
242;2.9421
245;2.8463
248;2.3372
251;1.3925
254;0.982
257;0.8705
260;0.8964
263;0.9525
266;1.059
269;1.1976
272;1.2817
275;1.3239
278;1.4265
281;1.5341
284;1.4648
287;1.3363
290;1.3063
293;1.2675
296;1.0453
299;0.8124
302;0.6559
305;0.5716
308;0.5164
311;0.4747
314;0.4391
317;0.4141
320;0.3981
323;0.3907
326;0.3927
329;0.4016
332;0.4157
335;0.4294
338;0.4401
341;0.4454
344;0.4446
347;0.4361
350;0.4154
353;0.3782
356;0.3282
359;0.2675
362;0.2068
365;0.151
368;0.1067
371;0.0729
374;0.0494
377;0.0339
380;0.0251
383;0.0185
386;0.0145
389;0.0122
392;0.0106
395;0.0097
398;0.0089
401;0.0086
404;0.0085
407;0.0084
410;0.0083
413;0.0086
416;0.0088
419;0.0088
422;0.0088
425;0.0088
428;0.0085
431;0.0081
434;0.0081
437;0.0076
440;0.0074
443;0.0071
446;0.0066
449;0.0065
452;0.006
455;0.0057
458;0.0052
461;0.0054
464;0.005
467;0.0048
470;0.0045
473;0.0043
476;0.0041
479;0.0045
482;0.0047
485;0.004
488;0.0047
491;0.0049
494;0.0048
497;0.0048
500;0.0043
503;0.0049
506;0.0043
509;0.0041
512;0.0047
515;0.0044
518;0.0041
521;0.004
524;0.0034
527;0.0033
530;0.0033
533;0.0029
536;0.0018
539;0.0015
542;0.0016
545;0.0009
548;0.0014
551;0.0014
554;0
557;-0.0003
560;-0.0008
563;-0.0009
566;-0.0007
569;-0.0013
572;-0.0012
575;-0.0015
578;-0.0019
581;-0.0021
584;-0.0023
587;-0.0025
590;-0.0022
593;-0.0022
596;-0.0019
599;-0.0026
602;-0.0024
605;-0.0024
608;-0.0019
611;-0.0016
614;-0.0026
617;-0.0031
620;-0.0025
623;-0.0026
626;-0.0026
629;-0.0032
632;-0.0032
635;-0.0031
638;-0.0033
641;-0.0033
644;-0.0037
647;-0.0035
650;-0.0032
653;-0.0032
656;-0.0033
659;-0.0029
662;-0.0033
665;-0.0033
668;-0.0029
671;-0.0027
674;-0.0015
677;-0.0028
680;-0.0023
683;-0.001
686;-0.0024
689;-0.0023
692;-0.0026
695;-0.0024
698;-0.002
701;-0.0025
704;-0.0021
707;-0.0026
710;-0.0024
713;-0.0021
716;-0.002
719;-0.0018
722;-0.0025
725;-0.0017
728;-0.0028
731;-0.0025
734;-0.0012
737;-0.0025
740;-0.0021
743;-0.0024
746;-0.0024
749;-0.0031
752;-0.0018
755;-0.0022
758;-0.0019
761;-0.0009
764;-0.0017
767;-0.0028
770;-0.0023
773;-0.0017
776;-0.0017
779;-0.0021
782;-0.0021
785;-0.0018
788;-0.0027
791;-0.0019
794;-0.0022
797;-0.0022
800;-0.0007

File: Azo-dye 1-20.csv
Azo-dye 1-20.csv;;Kemi1\Kemi01;15-09-2017 13:29:30;GENESYS 10S UV-Vis;2L9T161212;4.006
nm;A
200;2.704
203;2.8443
206;2.8861
209;2.8163
212;2.6612
215;2.4063
218;2.2986
221;2.3411
224;2.4579
227;2.6539
230;2.8539
233;2.8584
236;2.8449
239;2.7723
242;2.7501
245;2.2779
248;1.3516
251;0.7615
254;0.529
257;0.4674
260;0.4814
263;0.5119
266;0.5699
269;0.6458
272;0.6915
275;0.7153
278;0.7724
281;0.8333
284;0.795
287;0.7231
290;0.7072
293;0.6864
296;0.5653
299;0.4388
302;0.353
305;0.3072
308;0.2768
311;0.2536
314;0.2338
317;0.2198
320;0.2109
323;0.2069
326;0.2076
329;0.213
332;0.2201
335;0.2275
338;0.233
341;0.2357
344;0.2356
347;0.231
350;0.2202
353;0.1999
356;0.1727
359;0.1399
362;0.1075
365;0.0774
368;0.0539
371;0.0357
374;0.0233
377;0.015
380;0.0104
383;0.0065
386;0.0043
389;0.0034
392;0.0026
395;0.0022
398;0.0022
401;0.0016
404;0.0019
407;0.002
410;0.0019
413;0.0022
416;0.0021
419;0.0024
422;0.0026
425;0.0025
428;0.0023
431;0.0023
434;0.0022
437;0.0018
440;0.002
443;0.002
446;0.0019
449;0.0019
452;0.0017
455;0.0016
458;0.0017
461;0.0015
464;0.0013
467;0.001
470;0.0013
473;0.0011
476;0.0013
479;0.0013
482;0.0013
485;0.0009
488;0.0014
491;0.0014
494;0.0009
497;0.0011
500;0.0017
503;0.0011
506;0.0017
509;0.0006
512;0.001
515;0.0011
518;0.0018
521;0.0006
524;0.0014
527;0.0008
530;0.0009
533;0.0008
536;0.0007
539;0
542;-0.0002
545;0.0007
548;0.0005
551;-0.0007
554;0
557;0.0001
560;-0.0007
563;-0.0009
566;-0.0004
569;-0.001
572;-0.0012
575;-0.0012
578;-0.0016
581;-0.0011
584;-0.0012
587;-0.0015
590;-0.0016
593;-0.0007
596;-0.0015
599;-0.001
602;-0.002
605;-0.0013
608;0.0002
611;-0.0011
614;-0.0016
617;-0.0011
620;-0.0016
623;-0.0009
626;-0.0017
629;-0.0007
632;0.0004
635;-0.0024
638;-0.0013
641;-0.0021
644;-0.0023
647;-0.0024
650;-0.0021
653;-0.0014
656;-0.002
659;0.0003
662;-0.0009
665;-0.0008
668;-0.0013
671;-0.0002
674;-0.0005
677;-0.0013
680;-0.0017
683;-0.0001
686;-0.0019
689;-0.0002
692;-0.0013
695;-0.0015
698;-0.0012
701;-0.0021
704;-0.0011
707;-0.0006
710;-0.0013
713;-0.0013
716;-0.0018
719;-0.0021
722;-0.0019
725;-0.0018
728;-0.0017
731;-0.0011
734;-0.0017
737;-0.0021
740;-0.0014
743;-0.0025
746;-0.0019
749;-0.002
752;-0.0017
755;-0.0022
758;-0.001
761;-0.0012
764;-0.0015
767;-0.0011
770;-0.0022
773;-0.0019
776;-0.0018
779;-0.0023
782;-0.0018
785;-0.0021
788;-0.0027
791;-0.0018
794;-0.0014
797;-0.0013
800;-0.0001