Folder: graphene-production/data/raw_data/uvvis/20171020_GrNH2_azodye

File: 171020_20min.csv
171020_20min.csv;;Kemi1\Kemi01;20-10-2017 13:19:16;GENESYS 10S UV-Vis;2L9T161212;4.006
nm;A
200;3.0317
203;3.1655
206;3.2397
209;3.2321
212;3.2079
215;3.2142
218;3.2368
221;3.2525
224;3.2983
227;3.3191
230;3.3568
233;3.2998
236;3.2853
239;3.2683
242;3.3108
245;3.2747
248;3.302
251;3.2479
254;3.2615
257;3.2506
260;3.2895
263;3.238
266;3.2018
269;3.1795
272;3.1885
275;3.1698
278;3.1667
281;3.1703
284;3.1804
287;3.2355
290;3.2206
293;3.2204
296;3.3035
299;3.393
302;3.4959
305;3.485
308;3.4773
311;3.4016
314;3.3232
317;3.2311
320;3.1812
323;3.1735
326;3.1182
329;3.0549
332;3.0516
335;3.0216
338;3.0054
341;2.979
344;2.9972
347;2.9613
350;2.9381
353;2.9432
356;2.9279
359;2.8374
362;2.5717
365;2.0315
368;1.5342
371;1.1099
374;0.806
377;0.6082
380;0.4862
383;0.4051
386;0.3559
389;0.3267
392;0.3085
395;0.2973
398;0.2901
401;0.286
404;0.2834
407;0.2822
410;0.2815
413;0.2811
416;0.2805
419;0.28
422;0.2784
425;0.2775
428;0.2755
431;0.273
434;0.2702
437;0.2674
440;0.2642
443;0.2609
446;0.2578
449;0.2547
452;0.2514
455;0.2483
458;0.245
461;0.2425
464;0.2402
467;0.2381
470;0.2366
473;0.2356
476;0.2349
479;0.2345
482;0.2345
485;0.2345
488;0.2348
491;0.2341
494;0.2326
497;0.2297
500;0.2258
503;0.2209
506;0.2161
509;0.2109
512;0.2051
515;0.1992
518;0.193
521;0.1866
524;0.1794
527;0.1723
530;0.1652
533;0.1568
536;0.1491
539;0.1409
542;0.1327
545;0.1246
548;0.1164
551;0.1087
554;0.1009
557;0.0932
560;0.0861
563;0.0795
566;0.0726
569;0.0669
572;0.0612
575;0.0562
578;0.052
581;0.0472
584;0.0441
587;0.0395
590;0.0366
593;0.0335
596;0.0309
599;0.0291
602;0.0266
605;0.0248
608;0.0233
611;0.022
614;0.02
617;0.0191
620;0.0181
623;0.0169
626;0.0159
629;0.0152
632;0.0139
635;0.0135
638;0.0128
641;0.0122
644;0.0118
647;0.0107
650;0.0107
653;0.0109
656;0.0101
659;0.01
662;0.0099
665;0.009
668;0.0091
671;0.0089
674;0.009
677;0.0081
680;0.0084
683;0.0087
686;0.0078
689;0.0081
692;0.0082
695;0.0082
698;0.0076
701;0.0065
704;0.007
707;0.0073
710;0.0071
713;0.0065
716;0.0064
719;0.0059
722;0.0059
725;0.006
728;0.0061
731;0.0056
734;0.0064
737;0.0056
740;0.0059
743;0.0062
746;0.0051
749;0.0048
752;0.0048
755;0.0052
758;0.0047
761;0.0051
764;0.0045
767;0.0041
770;0.0048
773;0.0048
776;0.004
779;0.0044
782;0.0044
785;0.0045
788;0.0042
791;0.0029
794;0.0035
797;0.0033
800;0.0029

File: 171020_40min.csv
171020_40min.csv;;Kemi1\Kemi01;20-10-2017 13:38:17;GENESYS 10S UV-Vis;2L9T161212;4.006
nm;A
200;2.973
203;3.1144
206;3.1701
209;3.1359
212;3.1201
215;3.1184
218;3.1433
221;3.1503
224;3.1803
227;3.2194
230;3.2492
233;3.2034
236;3.1984
239;3.1774
242;3.2077
245;3.1647
248;3.1905
251;3.1422
254;3.1311
257;3.0954
260;3.131
263;3.0772
266;3.0426
269;3.0182
272;3.0267
275;3.0016
278;3.0028
281;3.0068
284;3.0267
287;3.0519
290;3.0538
293;3.0703
296;3.1288
299;3.2043
302;3.2472
305;3.1425
308;3.0536
311;2.9999
314;2.9802
317;2.9668
320;2.9699
323;2.9859
326;2.966
329;2.9278
332;2.9274
335;2.9081
338;2.8997
341;2.8762
344;2.8916
347;2.8588
350;2.8382
353;2.8358
356;2.8284
359;2.7293
362;2.4602
365;1.9227
368;1.4314
371;1.0145
374;0.7176
377;0.5272
380;0.4099
383;0.3334
386;0.2867
389;0.2584
392;0.2395
395;0.2268
398;0.2169
401;0.2097
404;0.2033
407;0.1982
410;0.1936
413;0.1895
416;0.1855
419;0.1815
422;0.178
425;0.1742
428;0.1711
431;0.1676
434;0.1645
437;0.1618
440;0.1588
443;0.1561
446;0.1538
449;0.1516
452;0.1494
455;0.147
458;0.1444
461;0.1421
464;0.1394
467;0.1369
470;0.1348
473;0.1324
476;0.1302
479;0.1274
482;0.1257
485;0.124
488;0.1224
491;0.12
494;0.1175
497;0.1135
500;0.1088
503;0.104
506;0.0995
509;0.0948
512;0.0904
515;0.0864
518;0.0825
521;0.079
524;0.0757
527;0.0725
530;0.0695
533;0.0663
536;0.0635
539;0.0607
542;0.0579
545;0.0556
548;0.0527
551;0.0504
554;0.0477
557;0.046
560;0.0433
563;0.041
566;0.0391
569;0.0372
572;0.0344
575;0.0333
578;0.0317
581;0.0297
584;0.0281
587;0.0274
590;0.0257
593;0.0247
596;0.0226
599;0.0222
602;0.0212
605;0.0204
608;0.0189
611;0.0186
614;0.0168
617;0.0167
620;0.0162
623;0.0148
626;0.0143
629;0.0135
632;0.0124
635;0.0126
638;0.0119
641;0.0107
644;0.0113
647;0.0102
650;0.0098
653;0.0096
656;0.009
659;0.0103
662;0.009
665;0.0086
668;0.009
671;0.0086
674;0.0085
677;0.0078
680;0.0072
683;0.0082
686;0.0082
689;0.008
692;0.0081
695;0.0075
698;0.0075
701;0.0067
704;0.0055
707;0.006
710;0.0062
713;0.0055
716;0.0051
719;0.0053
722;0.0067
725;0.0068
728;0.005
731;0.0056
734;0.0054
737;0.0068
740;0.0062
743;0.0057
746;0.0045
749;0.0041
752;0.0046
755;0.0045
758;0.0044
761;0.0049
764;0.0039
767;0.0038
770;0.0031
773;0.0031
776;0.003
779;0.0032
782;0.0022
785;0.0029
788;0.003
791;0.0031
794;0.0033
797;0.003
800;0.0023

File: 171020_60min.csv
171020_60min.csv;;Kemi1\Kemi01;20-10-2017 13:58:41;GENESYS 10S UV-Vis;2L9T161212;4.006
nm;A
200;2.9702
203;3.1053
206;3.1557
209;3.1202
212;3.0999
215;3.1008
218;3.1214
221;3.131
224;3.1553
227;3.2042
230;3.2275
233;3.1844
236;3.1811
239;3.1642
242;3.1896
245;3.1554
248;3.1666
251;3.1208
254;3.0853
257;3.091
260;3.0983
263;3.0374
266;3.0014
269;2.9728
272;2.9785
275;2.9557
278;2.9538
281;2.9587
284;2.9738
287;2.9941
290;2.9957
293;3.0075
296;3.0582
299;3.0962
302;2.9056
305;2.5889
308;2.4759
311;2.4845
314;2.5656
317;2.665
320;2.7648
323;2.8583
326;2.8924
329;2.882
332;2.8866
335;2.8838
338;2.8702
341;2.8572
344;2.8717
347;2.8372
350;2.8257
353;2.8169
356;2.8071
359;2.6909
362;2.4016
365;1.8746
368;1.4036
371;1.0067
374;0.7234
377;0.5406
380;0.4274
383;0.3518
386;0.3045
389;0.2748
392;0.2542
395;0.2389
398;0.2265
401;0.2162
404;0.208
407;0.2005
410;0.1938
413;0.1879
416;0.1822
419;0.1766
422;0.171
425;0.1664
428;0.1616
431;0.1568
434;0.1524
437;0.1484
440;0.1445
443;0.141
446;0.1375
449;0.1345
452;0.1317
455;0.1288
458;0.1258
461;0.1231
464;0.1206
467;0.1178
470;0.1151
473;0.1125
476;0.1099
479;0.1076
482;0.1048
485;0.1024
488;0.1
491;0.097
494;0.0941
497;0.091
500;0.0874
503;0.0835
506;0.0801
509;0.0772
512;0.0742
515;0.0712
518;0.0685
521;0.0659
524;0.0634
527;0.0606
530;0.0584
533;0.056
536;0.0534
539;0.0512
542;0.0493
545;0.0476
548;0.0451
551;0.0429
554;0.0409
557;0.0392
560;0.0371
563;0.0355
566;0.034
569;0.032
572;0.0307
575;0.0294
578;0.0279
581;0.0261
584;0.0257
587;0.0236
590;0.0228
593;0.022
596;0.0218
599;0.0202
602;0.0195
605;0.0187
608;0.0176
611;0.0168
614;0.0155
617;0.0154
620;0.0148
623;0.0138
626;0.0135
629;0.0132
632;0.0125
635;0.0123
638;0.0113
641;0.0109
644;0.0104
647;0.01
650;0.0101
653;0.0097
656;0.0091
659;0.0089
662;0.0087
665;0.0083
668;0.0087
671;0.008
674;0.0086
677;0.0076
680;0.008
683;0.0079
686;0.0084
689;0.0083
692;0.0076
695;0.0073
698;0.0067
701;0.0072
704;0.0063
707;0.0066
710;0.0063
713;0.0057
716;0.0061
719;0.0057
722;0.0056
725;0.0057
728;0.0056
731;0.0055
734;0.0049
737;0.005
740;0.0053
743;0.0052
746;0.0049
749;0.0039
752;0.005
755;0.0053
758;0.005
761;0.0049
764;0.0037
767;0.0045
770;0.0037
773;0.0039
776;0.004
779;0.0038
782;0.0039
785;0.003
788;0.0033
791;0.0038
794;0.0029
797;0.0033
800;0.0031

File: 171020_80min.csv
171020_80min.csv;;Kemi1\Kemi01;20-10-2017 14:18:49;GENESYS 10S UV-Vis;2L9T161212;4.006
nm;A
200;2.958
203;3.0906
206;3.1438
209;3.1122
212;3.0988
215;3.0843
218;3.1125
221;3.1169
224;3.1467
227;3.2006
230;3.2291
233;3.1887
236;3.1811
239;3.1669
242;3.1926
245;3.1562
248;3.1691
251;3.114
254;3.0853
257;3.0525
260;3.07
263;3.0209
266;2.9756
269;2.9468
272;2.9529
275;2.9283
278;2.9294
281;2.9349
284;2.946
287;2.9874
290;2.9717
293;2.9807
296;3.022
299;3.0218
302;2.5994
305;2.2321
308;2.1615
311;2.2383
314;2.3979
317;2.5656
320;2.7173
323;2.8356
326;2.88
329;2.8808
332;2.8869
335;2.8734
338;2.8731
341;2.8556
344;2.8708
347;2.8403
350;2.8208
353;2.8247
356;2.8127
359;2.7239
362;2.4635
365;1.935
368;1.4504
371;1.0402
374;0.7479
377;0.5613
380;0.4463
383;0.3717
386;0.326
389;0.2975
392;0.2779
395;0.2632
398;0.2511
401;0.2411
404;0.2319
407;0.2244
410;0.2165
413;0.21
416;0.2029
419;0.1963
422;0.1896
425;0.1836
428;0.1775
431;0.1709
434;0.1657
437;0.1604
440;0.1556
443;0.1508
446;0.1466
449;0.1429
452;0.139
455;0.1354
458;0.1319
461;0.1289
464;0.1255
467;0.1229
470;0.1197
473;0.1171
476;0.1142
479;0.1113
482;0.109
485;0.1066
488;0.1043
491;0.1015
494;0.0988
497;0.0955
500;0.0921
503;0.0884
506;0.0853
509;0.0817
512;0.0786
515;0.0759
518;0.0729
521;0.0703
524;0.068
527;0.0653
530;0.063
533;0.0608
536;0.0585
539;0.0563
542;0.0543
545;0.0523
548;0.0502
551;0.0484
554;0.0473
557;0.0453
560;0.0428
563;0.0417
566;0.0399
569;0.0386
572;0.0373
575;0.0349
578;0.0337
581;0.0329
584;0.0311
587;0.0301
590;0.0292
593;0.0283
596;0.0272
599;0.0258
602;0.0246
605;0.0245
608;0.0235
611;0.0223
614;0.0214
617;0.0211
620;0.0206
623;0.0193
626;0.019
629;0.0186
632;0.0174
635;0.018
638;0.0157
641;0.0157
644;0.0154
647;0.0139
650;0.0139
653;0.014
656;0.0132
659;0.0135
662;0.0129
665;0.012
668;0.0121
671;0.0123
674;0.0124
677;0.0121
680;0.0119
683;0.0115
686;0.0111
689;0.0116
692;0.0111
695;0.0108
698;0.0103
701;0.0107
704;0.01
707;0.0095
710;0.0098
713;0.0091
716;0.0093
719;0.0089
722;0.0087
725;0.0088
728;0.0083
731;0.0091
734;0.0083
737;0.0084
740;0.0077
743;0.0085
746;0.0083
749;0.0069
752;0.0081
755;0.0079
758;0.0072
761;0.0069
764;0.0065
767;0.007
770;0.0073
773;0.0063
776;0.0058
779;0.0054
782;0.0069
785;0.0063
788;0.0055
791;0.0054
794;0.0049
797;0.0056
800;0.0063

File: 171020_100min.csv
171020_100min.csv;;Kemi1\Kemi01;20-10-2017 14:42:24;GENESYS 10S UV-Vis;2L9T161212;4.006
nm;A
200;2.9769
203;3.107
206;3.1547
209;3.1091
212;3.1089
215;3.0894
218;3.1021
221;3.1182
224;3.1602
227;3.198
230;3.2297
233;3.1928
236;3.182
239;3.166
242;3.1872
245;3.1569
248;3.1648
251;3.1221
254;3.082
257;3.0507
260;3.0727
263;3.0049
266;2.978
269;2.9512
272;2.9594
275;2.9272
278;2.9259
281;2.9276
284;2.9436
287;2.9619
290;2.9693
293;2.9802
296;3.0139
299;2.9925
302;2.5027
305;2.1411
308;2.0846
311;2.1748
314;2.3419
317;2.5177
320;2.6807
323;2.8168
326;2.8685
329;2.8778
332;2.897
335;2.8863
338;2.8764
341;2.8627
344;2.8848
347;2.8513
350;2.8358
353;2.8333
356;2.8178
359;2.7169
362;2.4464
365;1.9341
368;1.467
371;1.0721
374;0.7895
377;0.6079
380;0.4945
383;0.4188
386;0.3709
389;0.34
392;0.3177
395;0.3003
398;0.285
401;0.2728
404;0.2612
407;0.2511
410;0.241
413;0.2324
416;0.2236
419;0.2151
422;0.2068
425;0.1993
428;0.1919
431;0.1845
434;0.1778
437;0.171
440;0.165
443;0.1592
446;0.1538
449;0.149
452;0.1444
455;0.1401
458;0.1359
461;0.1323
464;0.1283
467;0.1248
470;0.1212
473;0.1179
476;0.1145
479;0.1112
482;0.1082
485;0.1053
488;0.1024
491;0.0989
494;0.0961
497;0.0926
500;0.089
503;0.0862
506;0.0825
509;0.0795
512;0.0764
515;0.073
518;0.0705
521;0.0678
524;0.0656
527;0.0632
530;0.0611
533;0.0587
536;0.0568
539;0.0551
542;0.053
545;0.0511
548;0.0496
551;0.0472
554;0.0462
557;0.0443
560;0.0429
563;0.0427
566;0.0404
569;0.039
572;0.0374
575;0.0363
578;0.0352
581;0.0343
584;0.0326
587;0.0326
590;0.0311
593;0.0298
596;0.0295
599;0.0291
602;0.0276
605;0.0272
608;0.0265
611;0.0256
614;0.025
617;0.024
620;0.0232
623;0.0223
626;0.022
629;0.022
632;0.0206
635;0.021
638;0.0199
641;0.0187
644;0.0182
647;0.0185
650;0.017
653;0.0173
656;0.0173
659;0.0167
662;0.0166
665;0.0163
668;0.0157
671;0.0167
674;0.0155
677;0.0155
680;0.0155
683;0.0158
686;0.015
689;0.0143
692;0.016
695;0.0143
698;0.0132
701;0.0138
704;0.0127
707;0.0125
710;0.0126
713;0.0127
716;0.0121
719;0.0124
722;0.0123
725;0.0112
728;0.0113
731;0.011
734;0.0111
737;0.0125
740;0.0111
743;0.0111
746;0.0105
749;0.0107
752;0.0108
755;0.0101
758;0.0099
761;0.0108
764;0.01
767;0.0096
770;0.0089
773;0.0081
776;0.0083
779;0.0087
782;0.0084
785;0.0083
788;0.0092
791;0.0085
794;0.0079
797;0.0076
800;0.0086

File: 171020_100min_New2Naphtoltest.csv
171020_100min_New2Naphtoltest.csv;;Kemi1\Kemi01;20-10-2017 14:46:27;GENESYS 10S UV-Vis;2L9T161212;4.006
nm;A
200;2.9704
203;3.1446
206;3.1553
209;3.1262
212;3.0947
215;3.0879
218;3.1012
221;3.117
224;3.1594
227;3.1848
230;3.2112
233;3.1722
236;3.1717
239;3.1512
242;3.1736
245;3.1476
248;3.1582
251;3.1127
254;3.0861
257;3.0586
260;3.0756
263;3.0081
266;2.9716
269;2.9442
272;2.9507
275;2.9216
278;2.9207
281;2.9263
284;2.9314
287;2.9764
290;2.9672
293;2.9659
296;3.0098
299;2.8384
302;2.2048
305;1.8891
308;1.8364
311;1.9011
314;2.0351
317;2.1947
320;2.3695
323;2.5488
326;2.6741
329;2.754
332;2.8151
335;2.8389
338;2.8446
341;2.8292
344;2.8499
347;2.8133
350;2.7908
353;2.7649
356;2.6931
359;2.4543
362;2.0748
365;1.6066
368;1.224
371;0.9103
374;0.6887
377;0.5454
380;0.4556
383;0.3939
386;0.354
389;0.3269
392;0.3064
395;0.2898
398;0.275
401;0.2626
404;0.2506
407;0.2407
410;0.2302
413;0.2217
416;0.213
419;0.2046
422;0.1966
425;0.1888
428;0.1819
431;0.1739
434;0.1678
437;0.1616
440;0.1551
443;0.15
446;0.1447
449;0.1403
452;0.1358
455;0.1319
458;0.1278
461;0.1243
464;0.1208
467;0.1175
470;0.1145
473;0.1114
476;0.1079
479;0.105
482;0.1018
485;0.0992
488;0.0961
491;0.0935
494;0.0908
497;0.0876
500;0.0847
503;0.0815
506;0.0789
509;0.0754
512;0.0724
515;0.0704
518;0.0677
521;0.0656
524;0.0629
527;0.0607
530;0.0589
533;0.0566
536;0.0546
539;0.0528
542;0.051
545;0.0498
548;0.0479
551;0.0464
554;0.0454
557;0.0443
560;0.0423
563;0.0406
566;0.04
569;0.0383
572;0.0364
575;0.0364
578;0.0348
581;0.0334
584;0.0322
587;0.0316
590;0.0312
593;0.0293
596;0.0292
599;0.0281
602;0.0283
605;0.0274
608;0.0269
611;0.0254
614;0.0256
617;0.0241
620;0.0228
623;0.0237
626;0.0217
629;0.0216
632;0.0213
635;0.0203
638;0.0196
641;0.0182
644;0.0191
647;0.0188
650;0.0188
653;0.0177
656;0.0175
659;0.0175
662;0.0167
665;0.0167
668;0.0166
671;0.0169
674;0.0165
677;0.0161
680;0.0157
683;0.0161
686;0.0162
689;0.0151
692;0.0155
695;0.0148
698;0.015
701;0.0148
704;0.0137
707;0.0142
710;0.0136
713;0.0131
716;0.0123
719;0.013
722;0.0128
725;0.0125
728;0.0124
731;0.0118
734;0.012
737;0.0117
740;0.0117
743;0.0116
746;0.0109
749;0.0114
752;0.011
755;0.0108
758;0.0107
761;0.0101
764;0.0101
767;0.0097
770;0.0092
773;0.0095
776;0.0082
779;0.0088
782;0.0093
785;0.0093
788;0.0094
791;0.0082
794;0.0083
797;0.0089
800;0.0096