Folder: graphene-production/data/raw_data/uvvis/20171130_GrNH2_azodye

File: 20171130_0min.csv
20171130_0min.csv;;Kemi1\Kemi01;30-11-2017 15:44:02;GENESYS 10S UV-Vis;2L9T161212;4.006
nm;A
200;3.4785
203;3.6368
206;3.695
209;3.7435
212;3.7924
215;3.7934
218;3.7965
221;3.8253
224;4.0378
227;4.1019
230;4.1716
233;4.0982
236;4.1135
239;4.1273
242;4.2599
245;4.1823
248;4.172
251;4.0805
254;3.9691
257;3.9201
260;4.1173
263;3.9359
266;3.8909
269;3.8752
272;4.0174
275;3.8965
278;3.9251
281;3.9606
284;3.9674
287;4.0051
290;3.9958
293;3.994
296;4.027
299;3.9166
302;3.3644
305;2.91
308;2.752
311;2.766
314;2.8979
317;3.0812
320;3.2924
323;3.5089
326;3.63
329;3.754
332;3.7625
335;3.7693
338;3.7529
341;3.7611
344;3.8185
347;3.7694
350;3.7273
353;3.7079
356;3.6597
359;3.4708
362;3.1157
365;2.5849
368;2.1363
371;1.761
374;1.4906
377;1.3149
380;1.2125
383;1.1554
386;1.1374
389;1.1463
392;1.1727
395;1.2108
398;1.2579
401;1.3068
404;1.3561
407;1.4032
410;1.45
413;1.4893
416;1.5244
419;1.5525
422;1.5726
425;1.5846
428;1.5894
431;1.5881
434;1.5814
437;1.5703
440;1.5559
443;1.5379
446;1.5176
449;1.4973
452;1.4761
455;1.4558
458;1.438
461;1.4241
464;1.4133
467;1.408
470;1.4079
473;1.4126
476;1.4211
479;1.4324
482;1.4463
485;1.4584
488;1.472
491;1.4835
494;1.4909
497;1.4954
500;1.4957
503;1.4907
506;1.4811
509;1.4664
512;1.4463
515;1.4207
518;1.3898
521;1.355
524;1.3142
527;1.2698
530;1.2234
533;1.1677
536;1.1124
539;1.0554
542;0.9948
545;0.9328
548;0.8698
551;0.8067
554;0.7451
557;0.6828
560;0.6221
563;0.5652
566;0.5097
569;0.4575
572;0.4094
575;0.3652
578;0.3258
581;0.289
584;0.2562
587;0.2266
590;0.1999
593;0.1762
596;0.1556
599;0.1388
602;0.1227
605;0.1093
608;0.0971
611;0.0874
614;0.0786
617;0.0706
620;0.0641
623;0.0586
626;0.0536
629;0.0495
632;0.046
635;0.0436
638;0.0399
641;0.0381
644;0.0366
647;0.0341
650;0.0327
653;0.0314
656;0.03
659;0.0292
662;0.0281
665;0.0272
668;0.0258
671;0.0241
674;0.0237
677;0.0235
680;0.0226
683;0.0223
686;0.0214
689;0.021
692;0.0202
695;0.0196
698;0.0191
701;0.0193
704;0.0186
707;0.0187
710;0.018
713;0.0179
716;0.0179
719;0.017
722;0.0168
725;0.0164
728;0.0157
731;0.0157
734;0.015
737;0.0156
740;0.0152
743;0.015
746;0.0147
749;0.0136
752;0.0136
755;0.0138
758;0.0136
761;0.0129
764;0.0127
767;0.0126
770;0.0119
773;0.0116
776;0.0123
779;0.0117
782;0.0114
785;0.0118
788;0.0121
791;0.0112
794;0.0112
797;0.0103
800;0.0107

File: 20171130_20min.csv
20171130_20min.csv;;Kemi1\Kemi01;30-11-2017 15:49:09;GENESYS 10S UV-Vis;2L9T161212;4.006
nm;A
200;3.3274
203;3.5418
206;3.6101
209;3.6297
212;3.6371
215;3.6531
218;3.6728
221;3.7166
224;3.8749
227;3.9111
230;3.958
233;3.8424
236;3.8657
239;3.8393
242;3.9069
245;3.8525
248;3.9065
251;3.8215
254;3.7673
257;3.7261
260;3.8069
263;3.7147
266;3.6755
269;3.6525
272;3.7006
275;3.6475
278;3.6547
281;3.6534
284;3.6752
287;3.6701
290;3.6774
293;3.6855
296;3.7241
299;3.5499
302;2.8339
305;2.407
308;2.2984
311;2.3591
314;2.528
317;2.751
320;2.9886
323;3.226
326;3.3733
329;3.4471
332;3.5142
335;3.5113
338;3.5089
341;3.4779
344;3.5286
347;3.4822
350;3.4522
353;3.4605
356;3.3961
359;3.2005
362;2.803
365;2.2528
368;1.7951
371;1.4175
374;1.1517
377;0.9808
380;0.8818
383;0.8237
386;0.8015
389;0.8017
392;0.8161
395;0.8396
398;0.8704
401;0.9032
404;0.9365
407;0.9687
410;1.0011
413;1.0284
416;1.0537
419;1.0746
422;1.0901
425;1.1005
428;1.1066
431;1.1078
434;1.1057
437;1.1001
440;1.0919
443;1.0812
446;1.0687
449;1.056
452;1.0424
455;1.0291
458;1.0175
461;1.0084
464;1.0013
467;0.9977
470;0.9973
473;1
476;1.0053
479;1.013
482;1.0219
485;1.0291
488;1.0375
491;1.0447
494;1.0486
497;1.0509
500;1.05
503;1.0457
506;1.0382
509;1.027
512;1.0115
515;0.9929
518;0.9711
521;0.9463
524;0.9168
527;0.8852
530;0.8526
533;0.8134
536;0.7754
539;0.7353
542;0.6926
545;0.6501
548;0.6062
551;0.5629
554;0.5203
557;0.4772
560;0.4359
563;0.3971
566;0.359
569;0.3235
572;0.2896
575;0.2593
578;0.2326
581;0.2069
584;0.1845
587;0.1637
590;0.1451
593;0.1282
596;0.1143
599;0.1023
602;0.0914
605;0.0817
608;0.0726
611;0.0657
614;0.0591
617;0.0541
620;0.049
623;0.0446
626;0.0409
629;0.0377
632;0.0355
635;0.0325
638;0.0303
641;0.0281
644;0.0268
647;0.025
650;0.0238
653;0.0229
656;0.0216
659;0.0202
662;0.0195
665;0.019
668;0.0185
671;0.017
674;0.0166
677;0.016
680;0.0148
683;0.015
686;0.0147
689;0.014
692;0.0139
695;0.0129
698;0.0126
701;0.012
704;0.0124
707;0.0117
710;0.0119
713;0.0105
716;0.0108
719;0.0107
722;0.01
725;0.0094
728;0.0098
731;0.0094
734;0.0098
737;0.0096
740;0.0094
743;0.0096
746;0.0087
749;0.0083
752;0.008
755;0.0081
758;0.0087
761;0.0079
764;0.0081
767;0.008
770;0.0074
773;0.0077
776;0.0071
779;0.008
782;0.0066
785;0.0065
788;0.0071
791;0.0068
794;0.0064
797;0.0066
800;0.0058

File: 20171130_40min.csv
20171130_40min.csv;;Kemi1\Kemi01;30-11-2017 15:53:39;GENESYS 10S UV-Vis;2L9T161212;4.006
nm;A
200;3.2709
203;3.4795
206;3.5215
209;3.5282
212;3.5071
215;3.5172
218;3.5446
221;3.5537
224;3.6185
227;3.6663
230;3.7342
233;3.6613
236;3.6661
239;3.6577
242;3.7024
245;3.6399
248;3.7139
251;3.6241
254;3.5739
257;3.5201
260;3.5779
263;3.5107
266;3.4777
269;3.4512
272;3.4601
275;3.4312
278;3.4348
281;3.4328
284;3.4395
287;3.464
290;3.4615
293;3.4768
296;3.5008
299;3.2867
302;2.5384
305;2.128
308;2.0459
311;2.1272
314;2.3132
317;2.5506
320;2.7991
323;3.0409
326;3.2042
329;3.249
332;3.3051
335;3.3175
338;3.3033
341;3.2995
344;3.3228
347;3.2871
350;3.2722
353;3.2553
356;3.228
359;3.0266
362;2.6279
365;2.0767
368;1.6164
371;1.2406
374;0.9771
377;0.8093
380;0.7114
383;0.6533
386;0.6273
389;0.6219
392;0.6289
395;0.6441
398;0.6648
401;0.6875
404;0.7108
407;0.7333
410;0.7563
413;0.7759
416;0.7939
419;0.8084
422;0.8195
425;0.8271
428;0.8312
431;0.8323
434;0.8308
437;0.8269
440;0.8206
443;0.8131
446;0.8036
449;0.7943
452;0.7845
455;0.7748
458;0.766
461;0.7591
464;0.7541
467;0.7507
470;0.751
473;0.7522
476;0.756
479;0.7608
482;0.7665
485;0.7716
488;0.7771
491;0.7821
494;0.7848
497;0.7861
500;0.7846
503;0.7812
506;0.7749
509;0.7665
512;0.7549
515;0.7409
518;0.7243
521;0.7057
524;0.6838
527;0.6601
530;0.636
533;0.6064
536;0.5779
539;0.5486
542;0.5173
545;0.4853
548;0.4532
551;0.4205
554;0.3893
557;0.3576
560;0.3279
563;0.2989
566;0.2705
569;0.2441
572;0.2196
575;0.197
578;0.1768
581;0.1583
584;0.1421
587;0.1265
590;0.1132
593;0.1004
596;0.0892
599;0.0805
602;0.0723
605;0.0654
608;0.059
611;0.0538
614;0.0485
617;0.0448
620;0.04
623;0.0377
626;0.0347
629;0.0327
632;0.0308
635;0.0273
638;0.0264
641;0.025
644;0.0238
647;0.0225
650;0.0207
653;0.0205
656;0.0196
659;0.0188
662;0.0178
665;0.017
668;0.0178
671;0.0171
674;0.0154
677;0.0158
680;0.0144
683;0.0153
686;0.0144
689;0.0135
692;0.0145
695;0.0137
698;0.013
701;0.0132
704;0.0116
707;0.012
710;0.0118
713;0.0106
716;0.0114
719;0.0117
722;0.0107
725;0.0105
728;0.0105
731;0.0101
734;0.01
737;0.0098
740;0.0099
743;0.0093
746;0.0089
749;0.0088
752;0.0092
755;0.0091
758;0.0087
761;0.0086
764;0.0086
767;0.0084
770;0.0075
773;0.0083
776;0.007
779;0.0079
782;0.0079
785;0.0078
788;0.0076
791;0.0073
794;0.0073
797;0.0065
800;0.0078

File: 20171130_60min.csv
20171130_60min.csv;;Kemi1\Kemi01;30-11-2017 15:58:20;GENESYS 10S UV-Vis;2L9T161212;4.006
nm;A
200;3.2816
203;3.4211
206;3.4868
209;3.4912
212;3.4925
215;3.4774
218;3.5031
221;3.5245
224;3.6143
227;3.6147
230;3.6883
233;3.6019
236;3.6023
239;3.5697
242;3.6378
245;3.5812
248;3.62
251;3.5446
254;3.5229
257;3.4852
260;3.5143
263;3.4482
266;3.4043
269;3.3999
272;3.3976
275;3.3614
278;3.3662
281;3.3627
284;3.3641
287;3.4165
290;3.3954
293;3.4001
296;3.4258
299;3.2387
302;2.5071
305;2.0995
308;2.013
311;2.0917
314;2.2723
317;2.5019
320;2.7416
323;2.983
326;3.1411
329;3.2112
332;3.2621
335;3.2789
338;3.2693
341;3.269
344;3.2689
347;3.2351
350;3.2195
353;3.2113
356;3.1698
359;2.9817
362;2.5952
365;2.0506
368;1.5969
371;1.2246
374;0.963
377;0.7942
380;0.6942
383;0.6315
386;0.6007
389;0.5892
392;0.589
395;0.5969
398;0.6102
401;0.6251
404;0.6418
407;0.658
410;0.6744
413;0.6889
416;0.702
419;0.7128
422;0.7208
425;0.7261
428;0.7291
431;0.7294
434;0.7278
437;0.7246
440;0.7199
443;0.7138
446;0.707
449;0.7
452;0.6925
455;0.6851
458;0.6788
461;0.6735
464;0.6699
467;0.6678
470;0.668
473;0.6696
476;0.6727
479;0.6768
482;0.6813
485;0.6849
488;0.6891
491;0.6922
494;0.6939
497;0.6939
500;0.6918
503;0.6876
506;0.6807
509;0.6724
512;0.6606
515;0.6475
518;0.6318
521;0.6143
524;0.5946
527;0.573
530;0.5507
533;0.5244
536;0.4995
539;0.4732
542;0.4454
545;0.4179
548;0.3894
551;0.361
554;0.3338
557;0.307
560;0.2808
563;0.2557
566;0.2318
569;0.2098
572;0.1891
575;0.1702
578;0.1531
581;0.1375
584;0.1228
587;0.1102
590;0.0998
593;0.0882
596;0.0798
599;0.0724
602;0.0651
605;0.0591
608;0.0536
611;0.0494
614;0.0445
617;0.0414
620;0.0378
623;0.0344
626;0.0327
629;0.0309
632;0.0287
635;0.0269
638;0.0254
641;0.0234
644;0.0227
647;0.0214
650;0.0207
653;0.0196
656;0.019
659;0.0181
662;0.0175
665;0.0165
668;0.017
671;0.0158
674;0.0159
677;0.0157
680;0.0142
683;0.0142
686;0.0145
689;0.014
692;0.0137
695;0.0131
698;0.0135
701;0.013
704;0.0126
707;0.0115
710;0.0117
713;0.0113
716;0.0121
719;0.0106
722;0.0104
725;0.0098
728;0.0097
731;0.0094
734;0.0101
737;0.0112
740;0.0093
743;0.01
746;0.0081
749;0.0087
752;0.0095
755;0.0089
758;0.0085
761;0.0079
764;0.0086
767;0.0083
770;0.0074
773;0.0085
776;0.0081
779;0.0072
782;0.0085
785;0.0074
788;0.007
791;0.0064
794;0.0068
797;0.0066
800;0.0077

File: 20171130_80min.csv
20171130_80min.csv;;Kemi1\Kemi01;30-11-2017 16:02:47;GENESYS 10S UV-Vis;2L9T161212;4.006
nm;A
200;3.2287
203;3.3966
206;3.4582
209;3.4292
212;3.4608
215;3.4228
218;3.4543
221;3.4603
224;3.5302
227;3.5656
230;3.6185
233;3.5608
236;3.5661
239;3.5381
242;3.5867
245;3.541
248;3.5727
251;3.5047
254;3.4739
257;3.4441
260;3.475
263;3.4058
266;3.3713
269;3.3386
272;3.3487
275;3.3192
278;3.3236
281;3.3172
284;3.3259
287;3.3442
290;3.3435
293;3.3488
296;3.3823
299;3.2208
302;2.5271
305;2.1315
308;2.0527
311;2.1327
314;2.3114
317;2.5377
320;2.7683
323;2.9928
326;3.1271
329;3.1917
332;3.2312
335;3.2435
338;3.2303
341;3.2147
344;3.2444
347;3.2037
350;3.1996
353;3.1791
356;3.153
359;2.982
362;2.6171
365;2.0857
368;1.6319
371;1.2564
374;0.9923
377;0.82
380;0.7159
383;0.6482
386;0.6109
389;0.5929
392;0.5858
395;0.5861
398;0.5919
401;0.6003
404;0.6098
407;0.6198
410;0.6303
413;0.64
416;0.649
419;0.6563
422;0.6614
425;0.6646
428;0.6662
431;0.6651
434;0.6633
437;0.6598
440;0.6551
443;0.6493
446;0.6427
449;0.6365
452;0.6296
455;0.6231
458;0.6175
461;0.613
464;0.6094
467;0.6076
470;0.607
473;0.6082
476;0.6104
479;0.6129
482;0.6161
485;0.6184
488;0.6213
491;0.6232
494;0.6238
497;0.6227
500;0.6198
503;0.6154
506;0.6092
509;0.5999
512;0.5886
515;0.5764
518;0.5621
521;0.5459
524;0.5278
527;0.5083
530;0.4888
533;0.4659
536;0.4436
539;0.42
542;0.3955
545;0.3716
548;0.3468
551;0.3216
554;0.2979
557;0.2739
560;0.2511
563;0.2294
566;0.2083
569;0.1898
572;0.1712
575;0.1554
578;0.1407
581;0.1276
584;0.1154
587;0.1028
590;0.0942
593;0.0845
596;0.0774
599;0.0709
602;0.0643
605;0.0599
608;0.0548
611;0.0502
614;0.0459
617;0.0427
620;0.0395
623;0.0369
626;0.0359
629;0.0332
632;0.0321
635;0.0301
638;0.0284
641;0.0266
644;0.025
647;0.0248
650;0.0242
653;0.0232
656;0.0219
659;0.0221
662;0.0208
665;0.0202
668;0.0205
671;0.0199
674;0.0195
677;0.0191
680;0.0185
683;0.0184
686;0.0189
689;0.0184
692;0.0184
695;0.0166
698;0.018
701;0.0175
704;0.0156
707;0.0153
710;0.0154
713;0.0153
716;0.0149
719;0.0149
722;0.0139
725;0.0136
728;0.0131
731;0.0129
734;0.013
737;0.0138
740;0.0141
743;0.0124
746;0.0122
749;0.0131
752;0.0119
755;0.0117
758;0.0121
761;0.0117
764;0.0114
767;0.0113
770;0.0115
773;0.0116
776;0.0106
779;0.0102
782;0.0101
785;0.0115
788;0.0108
791;0.0101
794;0.0091
797;0.0104
800;0.0107