Folder: graphene-production/data/raw_data/uvvis/20180110_GrNH2_azodye

File: 20170110_0min.csv
20170110_0min.csv;;Kemi1\Kemi01;10-01-2018 17:33:00;GENESYS 10S UV-Vis;2L9T161212;4.006
nm;A
200;3.4755
203;3.6506
206;3.7394
209;3.7327
212;3.8201
215;3.7564
218;3.866
221;3.9039
224;4.0853
227;4.254
230;4.3888
233;4.1958
236;4.1879
239;4.143
242;4.3032
245;4.1368
248;4.3885
251;4.1447
254;4.0151
257;4.062
260;4.1025
263;4.0075
266;4.0209
269;4.0054
272;4.248
275;4.0063
278;4.0149
281;4.0224
284;4.0177
287;4.2688
290;4.0817
293;4.1231
296;4.1802
299;4.0885
302;3.5762
305;3.1512
308;3.0633
311;3.1751
314;3.3944
317;3.5896
320;3.7684
323;3.9156
326;3.9301
329;3.8732
332;3.8944
335;3.8464
338;3.8984
341;3.8166
344;3.9024
347;3.8306
350;3.7818
353;3.814
356;3.838
359;3.779
362;3.5382
365;2.8876
368;2.3184
371;1.8485
374;1.5248
377;1.3331
380;1.2334
383;1.1937
386;1.1998
389;1.2354
392;1.2899
395;1.3566
398;1.4346
401;1.5095
404;1.5861
407;1.6586
410;1.7283
413;1.789
416;1.8433
419;1.8891
422;1.9216
425;1.944
428;1.9553
431;1.9582
434;1.9546
437;1.9429
440;1.9274
443;1.9052
446;1.8808
449;1.8552
452;1.8288
455;1.803
458;1.781
461;1.764
464;1.7513
467;1.7453
470;1.7466
473;1.7543
476;1.7669
479;1.7835
482;1.8034
485;1.82
488;1.8394
491;1.8555
494;1.8646
497;1.8717
500;1.8729
503;1.8674
506;1.856
509;1.8367
512;1.8117
515;1.7789
518;1.7395
521;1.6952
524;1.6413
527;1.584
530;1.5251
533;1.4532
536;1.3813
539;1.3076
542;1.2303
545;1.1502
548;1.0683
551;0.9879
554;0.9087
557;0.8284
560;0.7522
563;0.679
566;0.6077
569;0.5401
572;0.4795
575;0.4242
578;0.3739
581;0.3265
584;0.2851
587;0.2475
590;0.2149
593;0.1853
596;0.1598
599;0.1392
602;0.1193
605;0.1026
608;0.0884
611;0.077
614;0.0665
617;0.0582
620;0.0506
623;0.0445
626;0.0392
629;0.035
632;0.0314
635;0.0281
638;0.0258
641;0.0228
644;0.021
647;0.0195
650;0.0184
653;0.0178
656;0.016
659;0.0156
662;0.0145
665;0.0139
668;0.0128
671;0.0121
674;0.0118
677;0.0116
680;0.0108
683;0.0105
686;0.0098
689;0.0099
692;0.0099
695;0.0092
698;0.0087
701;0.0082
704;0.0083
707;0.0083
710;0.0084
713;0.0085
716;0.0075
719;0.0075
722;0.007
725;0.0074
728;0.007
731;0.007
734;0.007
737;0.0065
740;0.0066
743;0.0072
746;0.0066
749;0.0062
752;0.0065
755;0.0059
758;0.0067
761;0.006
764;0.0059
767;0.0049
770;0.0052
773;0.0056
776;0.0057
779;0.0045
782;0.0058
785;0.006
788;0.0045
791;0.0049
794;0.0052
797;0.0049
800;0.0056

File: 20180110_30min.csv
20180110_30min.csv;;Kemi1\Kemi01;10-01-2018 17:39:13;GENESYS 10S UV-Vis;2L9T161212;4.006
nm;A
200;3.2464
203;3.3985
206;3.4836
209;3.4879
212;3.5065
215;3.4852
218;3.5381
221;3.55
224;3.6172
227;3.6402
230;3.7611
233;3.6583
236;3.6521
239;3.6253
242;3.6822
245;3.6158
248;3.6813
251;3.5733
254;3.5679
257;3.5026
260;3.5083
263;3.4446
266;3.4575
269;3.417
272;3.3919
275;3.3979
278;3.4093
281;3.4074
284;3.4235
287;3.4275
290;3.4576
293;3.4571
296;3.5011
299;3.4588
302;2.9111
305;2.4623
308;2.4045
311;2.5464
314;2.7997
317;3.0515
320;3.2566
323;3.3725
326;3.3969
329;3.3827
332;3.3895
335;3.3673
338;3.3554
341;3.3447
344;3.372
347;3.3289
350;3.3021
353;3.3227
356;3.3216
359;3.2604
362;3.0594
365;2.4784
368;1.9028
371;1.4121
374;1.0686
377;0.8546
380;0.7313
383;0.6602
386;0.63
389;0.6249
392;0.634
395;0.6525
398;0.678
401;0.7041
404;0.731
407;0.7576
410;0.7836
413;0.8057
416;0.8258
419;0.8421
422;0.8536
425;0.8612
428;0.8651
431;0.8652
434;0.8627
437;0.8579
440;0.8507
443;0.8418
446;0.8314
449;0.8209
452;0.8102
455;0.7993
458;0.7899
461;0.7826
464;0.7769
467;0.7738
470;0.7737
473;0.776
476;0.7804
479;0.7861
482;0.7927
485;0.7984
488;0.8052
491;0.8104
494;0.8138
497;0.8154
500;0.8145
503;0.8106
506;0.8043
509;0.7956
512;0.7836
515;0.7688
518;0.751
521;0.7319
524;0.7081
527;0.6828
530;0.6571
533;0.6265
536;0.5957
539;0.5643
542;0.5318
545;0.4976
548;0.4635
551;0.4301
554;0.3965
557;0.3632
560;0.3312
563;0.3001
566;0.2711
569;0.243
572;0.2167
575;0.1935
578;0.1724
581;0.1526
584;0.1354
587;0.119
590;0.1052
593;0.0928
596;0.082
599;0.0727
602;0.0634
605;0.0566
608;0.0508
611;0.0451
614;0.0406
617;0.0365
620;0.033
623;0.0302
626;0.0274
629;0.0252
632;0.0232
635;0.0216
638;0.0202
641;0.0184
644;0.0177
647;0.0166
650;0.016
653;0.015
656;0.0145
659;0.014
662;0.0128
665;0.0125
668;0.0119
671;0.0114
674;0.011
677;0.0107
680;0.0101
683;0.0102
686;0.0101
689;0.0089
692;0.0087
695;0.0088
698;0.0083
701;0.0079
704;0.0077
707;0.008
710;0.0071
713;0.0075
716;0.007
719;0.0072
722;0.0064
725;0.0068
728;0.0066
731;0.0065
734;0.0068
737;0.006
740;0.0064
743;0.0061
746;0.0054
749;0.0061
752;0.0059
755;0.0058
758;0.0063
761;0.0059
764;0.0057
767;0.0046
770;0.0053
773;0.0053
776;0.0053
779;0.0051
782;0.005
785;0.0046
788;0.0058
791;0.0048
794;0.0042
797;0.0048
800;0.0051

File: 20180110_60min.csv
20180110_60min.csv;;Kemi1\Kemi01;10-01-2018 17:43:51;GENESYS 10S UV-Vis;2L9T161212;4.006
nm;A
200;3.2111
203;3.3707
206;3.435
209;3.43
212;3.3962
215;3.3907
218;3.4083
221;3.4469
224;3.5106
227;3.5724
230;3.6243
233;3.5596
236;3.5503
239;3.5341
242;3.5698
245;3.5055
248;3.5408
251;3.4797
254;3.4239
257;3.4134
260;3.4044
263;3.3327
266;3.3389
269;3.2862
272;3.3139
275;3.2783
278;3.2788
281;3.3032
284;3.311
287;3.3801
290;3.3487
293;3.347
296;3.3859
299;3.34
302;2.7681
305;2.3251
308;2.2786
311;2.4261
314;2.6804
317;2.93
320;3.1262
323;3.2498
326;3.2716
329;3.24
332;3.2603
335;3.2405
338;3.2324
341;3.221
344;3.237
347;3.2071
350;3.2039
353;3.1983
356;3.2038
359;3.1409
362;2.9598
365;2.3912
368;1.8239
371;1.341
374;1.0023
377;0.7903
380;0.6671
383;0.5943
386;0.5599
389;0.5493
392;0.552
395;0.5632
398;0.5803
401;0.5986
404;0.6181
407;0.6372
410;0.6557
413;0.6721
416;0.6863
419;0.6979
422;0.7056
425;0.7106
428;0.7131
431;0.7122
434;0.7099
437;0.7057
440;0.7
443;0.6928
446;0.6845
449;0.6763
452;0.6682
455;0.6594
458;0.6519
461;0.6465
464;0.6415
467;0.6397
470;0.639
473;0.6404
476;0.6436
479;0.6479
482;0.6524
485;0.6565
488;0.661
491;0.6647
494;0.6667
497;0.6676
500;0.6659
503;0.6626
506;0.6573
509;0.6495
512;0.639
515;0.6268
518;0.6124
521;0.5964
524;0.5774
527;0.5568
530;0.5363
533;0.511
536;0.4868
539;0.4618
542;0.4356
545;0.4088
548;0.3817
551;0.3549
554;0.3284
557;0.302
560;0.2771
563;0.2528
566;0.229
569;0.2068
572;0.1869
575;0.1685
578;0.152
581;0.1361
584;0.1229
587;0.1105
590;0.0992
593;0.0894
596;0.0804
599;0.0732
602;0.0664
605;0.0605
608;0.0558
611;0.0509
614;0.0474
617;0.0438
620;0.0411
623;0.0391
626;0.0358
629;0.0345
632;0.0325
635;0.0317
638;0.0307
641;0.0281
644;0.0277
647;0.0267
650;0.0247
653;0.0248
656;0.0244
659;0.0237
662;0.0237
665;0.0238
668;0.0228
671;0.0219
674;0.0219
677;0.0208
680;0.0208
683;0.021
686;0.0206
689;0.0202
692;0.0202
695;0.0198
698;0.0197
701;0.0194
704;0.0194
707;0.0177
710;0.018
713;0.0174
716;0.0173
719;0.0172
722;0.0167
725;0.0168
728;0.0172
731;0.0171
734;0.0166
737;0.0163
740;0.0169
743;0.0155
746;0.0153
749;0.0153
752;0.0159
755;0.0148
758;0.0153
761;0.0155
764;0.0155
767;0.015
770;0.0146
773;0.0142
776;0.0143
779;0.0147
782;0.0145
785;0.0141
788;0.0125
791;0.0129
794;0.0134
797;0.0122
800;0.0139