Folder: graphene-production/data/raw_data/uvvis/20180119_GrNH2_azodye

File: 20180119_1_A_0min.csv
20180119_1_A_0min.csv;;Kemi1\Kemi01;20-01-2018 15:45:25;GENESYS 10S UV-Vis;2L9T161212;4.006
nm;A
400;1.1161
402;1.1487
404;1.1827
406;1.2146
408;1.2474
410;1.2777
412;1.3049
414;1.3317
416;1.356
418;1.3776
420;1.3975
422;1.412
424;1.4246
426;1.4337
428;1.4401
430;1.4436
432;1.4445
434;1.4436
436;1.4401
438;1.4349
440;1.4277
442;1.4197
444;1.4094
446;1.3988
448;1.3882
450;1.3769
452;1.3658
454;1.3544
456;1.3438
458;1.3345
460;1.3264
462;1.3193
464;1.3148
466;1.3119
468;1.3106
470;1.3116
472;1.3142
474;1.3187
476;1.3247
478;1.3318
480;1.3396
482;1.3481
484;1.355
486;1.3635
488;1.3702
490;1.3776
492;1.3829
494;1.3868
496;1.39
498;1.3904
500;1.3902
502;1.387
504;1.3818
506;1.3753
508;1.3659
510;1.3551
512;1.3416
514;1.3264
516;1.3089
518;1.2894
520;1.2696
522;1.2456
524;1.2202
526;1.1937
528;1.1654
530;1.1389
532;1.1061
534;1.0736
536;1.0393
538;1.0059
540;0.9679
542;0.9329
544;0.8955
546;0.8555
548;0.8177
550;0.7795
552;0.7407
554;0.7031
556;0.6643
558;0.6274
560;0.5902
562;0.5548
564;0.5188
566;0.4853
568;0.4532
570;0.4225
572;0.3933
574;0.3663
576;0.3406
578;0.3166
580;0.2937
582;0.2722
584;0.2528
586;0.2338
588;0.2169
590;0.2009
592;0.1864
594;0.1729
596;0.1604
598;0.1502
600;0.139
602;0.13
604;0.1209
606;0.1137
608;0.1064
610;0.1
612;0.0944
614;0.0891
616;0.0845
618;0.0804
620;0.0758
622;0.0723
624;0.0695
626;0.0664
628;0.0637
630;0.0608
632;0.0594
634;0.0577
636;0.0556
638;0.0538
640;0.0521
642;0.0508
644;0.0494
646;0.0488
648;0.0468
650;0.0459
652;0.0456
654;0.0452
656;0.0438
658;0.0432
660;0.0428
662;0.042
664;0.0416
666;0.0407
668;0.0398
670;0.0394
672;0.0391
674;0.0384
676;0.0377
678;0.0369
680;0.0368
682;0.0367
684;0.036
686;0.036
688;0.0358
690;0.0353
692;0.035
694;0.0345
696;0.0342
698;0.0337
700;0.0335

File: 20180119_1_A_30min.csv
20180119_1_A_30min.csv;;Kemi1\Kemi01;20-01-2018 15:45:37;GENESYS 10S UV-Vis;2L9T161212;4.006
nm;A
400;0.9812
402;1.0063
404;1.0328
406;1.0579
408;1.0842
410;1.1087
412;1.131
414;1.1528
416;1.1729
418;1.1913
420;1.2075
422;1.22
424;1.2308
426;1.2391
428;1.2449
430;1.2487
432;1.2501
434;1.2499
436;1.2476
438;1.2438
440;1.2385
442;1.2323
444;1.2244
446;1.216
448;1.2077
450;1.199
452;1.1901
454;1.1812
456;1.1728
458;1.1653
460;1.1592
462;1.1537
464;1.1502
466;1.1479
468;1.1474
470;1.1484
472;1.1508
474;1.155
476;1.1602
478;1.1662
480;1.1731
482;1.1802
484;1.1865
486;1.1939
488;1.1997
490;1.2059
492;1.2104
494;1.2137
496;1.216
498;1.2166
500;1.2161
502;1.2134
504;1.2089
506;1.2031
508;1.1948
510;1.1852
512;1.1735
514;1.1602
516;1.1449
518;1.1279
520;1.11
522;1.089
524;1.0669
526;1.0432
528;1.0182
530;0.9949
532;0.9663
534;0.9376
536;0.9073
538;0.8782
540;0.8449
542;0.8146
544;0.7821
546;0.7472
548;0.7146
550;0.6815
552;0.6478
554;0.6155
556;0.5823
558;0.5507
560;0.5189
562;0.4886
564;0.4577
566;0.429
568;0.4015
570;0.375
572;0.35
574;0.3271
576;0.3046
578;0.2839
580;0.2644
582;0.2454
584;0.2287
586;0.2124
588;0.1976
590;0.1836
592;0.1712
594;0.159
596;0.1482
598;0.1391
600;0.1296
602;0.1211
604;0.1132
606;0.1068
608;0.0999
610;0.0943
612;0.0894
614;0.0846
616;0.0797
618;0.0764
620;0.072
622;0.0685
624;0.0658
626;0.063
628;0.0603
630;0.0577
632;0.0559
634;0.054
636;0.0524
638;0.0505
640;0.0486
642;0.0475
644;0.0456
646;0.0451
648;0.0436
650;0.0422
652;0.0413
654;0.0408
656;0.0391
658;0.0381
660;0.0378
662;0.0369
664;0.0363
666;0.0359
668;0.0357
670;0.0352
672;0.0344
674;0.0343
676;0.033
678;0.0323
680;0.0321
682;0.0315
684;0.0305
686;0.0303
688;0.0303
690;0.0296
692;0.0291
694;0.0289
696;0.0278
698;0.0277
700;0.027

File: 20180119_1_A_60min.csv
20180119_1_A_60min.csv;;Kemi1\Kemi01;20-01-2018 15:45:44;GENESYS 10S UV-Vis;2L9T161212;4.006
nm;A
400;0.6444
402;0.6523
404;0.6612
406;0.6702
408;0.6797
410;0.6885
412;0.697
414;0.7053
416;0.7132
418;0.7205
420;0.7274
422;0.7328
424;0.7378
426;0.7418
428;0.7451
430;0.7477
432;0.7492
434;0.7499
436;0.7499
438;0.7494
440;0.748
442;0.7464
444;0.7442
446;0.7413
448;0.7384
450;0.7355
452;0.7324
454;0.7292
456;0.7262
458;0.7236
460;0.7211
462;0.7192
464;0.7182
466;0.7178
468;0.7176
470;0.7183
472;0.7195
474;0.7212
476;0.7233
478;0.7257
480;0.7281
482;0.7305
484;0.7326
486;0.7351
488;0.7365
490;0.7383
492;0.739
494;0.7389
496;0.7382
498;0.7365
500;0.7344
502;0.7311
504;0.7267
506;0.7216
508;0.7151
510;0.7081
512;0.6998
514;0.6907
516;0.6805
518;0.6694
520;0.6585
522;0.6455
524;0.6319
526;0.618
528;0.6033
530;0.5896
532;0.573
534;0.5567
536;0.5392
538;0.5227
540;0.5042
542;0.4868
544;0.4686
546;0.4491
548;0.4307
550;0.4121
552;0.3933
554;0.3753
556;0.3566
558;0.3392
560;0.3214
562;0.3046
564;0.2873
566;0.2713
568;0.2562
570;0.2418
572;0.2281
574;0.2157
576;0.2031
578;0.1917
580;0.1809
582;0.1704
584;0.161
586;0.1518
588;0.1432
590;0.1353
592;0.1281
594;0.1214
596;0.1146
598;0.1093
600;0.1033
602;0.0984
604;0.0934
606;0.0893
608;0.085
610;0.0812
612;0.0778
614;0.0745
616;0.0715
618;0.0691
620;0.066
622;0.0632
624;0.0612
626;0.0592
628;0.0577
630;0.0547
632;0.0538
634;0.0521
636;0.0507
638;0.0494
640;0.0478
642;0.0464
644;0.0447
646;0.0446
648;0.0429
650;0.0418
652;0.0415
654;0.0404
656;0.0396
658;0.0389
660;0.0384
662;0.0377
664;0.0374
666;0.0363
668;0.0352
670;0.0349
672;0.0337
674;0.0337
676;0.0326
678;0.032
680;0.032
682;0.0317
684;0.0309
686;0.0303
688;0.0304
690;0.0298
692;0.0295
694;0.0291
696;0.0282
698;0.0277
700;0.0283

File: 20180119_1_B_0min.csv
20180119_1_B_0min.csv;;Kemi1\Kemi01;20-01-2018 15:45:49;GENESYS 10S UV-Vis;2L9T161212;4.006
nm;A
400;0.8341
402;0.8396
404;0.8461
406;0.8525
408;0.8599
410;0.8672
412;0.8745
414;0.882
416;0.8895
418;0.8964
420;0.9029
422;0.9084
424;0.9136
426;0.9181
428;0.922
430;0.9253
432;0.9278
434;0.9297
436;0.931
438;0.932
440;0.9323
442;0.9321
444;0.9317
446;0.9307
448;0.9296
450;0.9285
452;0.9271
454;0.9257
456;0.9246
458;0.9236
460;0.923
462;0.9224
464;0.9227
466;0.9236
468;0.9247
470;0.9265
472;0.9285
474;0.9311
476;0.9341
478;0.9371
480;0.9398
482;0.943
484;0.945
486;0.9475
488;0.9487
490;0.95
492;0.9501
494;0.9491
496;0.9473
498;0.944
500;0.94
502;0.9344
504;0.9279
506;0.9202
508;0.9107
510;0.9006
512;0.8892
514;0.8764
516;0.8624
518;0.848
520;0.8331
522;0.8157
524;0.798
526;0.7801
528;0.7611
530;0.7431
532;0.7221
534;0.7008
536;0.679
538;0.6578
540;0.6339
542;0.6114
544;0.5881
546;0.5627
548;0.5388
550;0.5145
552;0.4903
554;0.4663
556;0.4422
558;0.4196
560;0.3969
562;0.3757
564;0.3543
566;0.3346
568;0.3162
570;0.2983
572;0.282
574;0.2665
576;0.252
578;0.2383
580;0.2256
582;0.2134
584;0.2021
586;0.1912
588;0.1813
590;0.1722
592;0.1636
594;0.1556
596;0.1478
598;0.1413
600;0.1343
602;0.1286
604;0.1225
606;0.1176
608;0.1122
610;0.1075
612;0.1034
614;0.0994
616;0.0956
618;0.0925
620;0.0885
622;0.0853
624;0.0828
626;0.08
628;0.0775
630;0.0749
632;0.0731
634;0.0709
636;0.0688
638;0.0673
640;0.0651
642;0.0634
644;0.0617
646;0.0612
648;0.0587
650;0.0577
652;0.0568
654;0.0558
656;0.0546
658;0.053
660;0.0525
662;0.0517
664;0.051
666;0.0491
668;0.0487
670;0.0486
672;0.0469
674;0.0465
676;0.0457
678;0.0448
680;0.0445
682;0.044
684;0.043
686;0.0427
688;0.0421
690;0.0413
692;0.0408
694;0.0403
696;0.0397
698;0.0388
700;0.0386

File: 20180119_1_B_30min.csv
20180119_1_B_30min.csv;;Kemi1\Kemi01;20-01-2018 15:45:55;GENESYS 10S UV-Vis;2L9T161212;4.006
nm;A
400;0.3733
402;0.3718
404;0.3711
406;0.3705
408;0.3703
410;0.3699
412;0.3699
414;0.3698
416;0.3699
418;0.3703
420;0.3704
422;0.3708
424;0.3713
426;0.3717
428;0.3722
430;0.3725
432;0.3726
434;0.3726
436;0.3724
438;0.3719
440;0.371
442;0.3701
444;0.3689
446;0.367
448;0.3652
450;0.363
452;0.3608
454;0.3582
456;0.355
458;0.352
460;0.3486
462;0.345
464;0.3416
466;0.3377
468;0.3342
470;0.3301
472;0.326
474;0.3223
476;0.318
478;0.3138
480;0.3093
482;0.3049
484;0.3006
486;0.2962
488;0.2917
490;0.2872
492;0.2826
494;0.2779
496;0.2729
498;0.2679
500;0.2631
502;0.2579
504;0.2524
506;0.2474
508;0.2417
510;0.2363
512;0.2307
514;0.2255
516;0.2196
518;0.2137
520;0.2087
522;0.2024
524;0.1965
526;0.1912
528;0.1851
530;0.1801
532;0.1744
534;0.1685
536;0.1631
538;0.1578
540;0.1521
542;0.1468
544;0.1415
546;0.1355
548;0.1306
550;0.1257
552;0.1206
554;0.1154
556;0.1107
558;0.1064
560;0.102
562;0.0977
564;0.093
566;0.089
568;0.0849
570;0.0813
572;0.078
574;0.0745
576;0.0712
578;0.0682
580;0.0657
582;0.0629
584;0.0601
586;0.0577
588;0.0555
590;0.0534
592;0.0516
594;0.0497
596;0.0474
598;0.0459
600;0.0443
602;0.0425
604;0.0408
606;0.0396
608;0.0385
610;0.0369
612;0.036
614;0.0351
616;0.0338
618;0.0331
620;0.032
622;0.0307
624;0.0305
626;0.0295
628;0.0291
630;0.0279
632;0.0278
634;0.0271
636;0.0263
638;0.0265
640;0.0257
642;0.025
644;0.0249
646;0.0246
648;0.0237
650;0.0233
652;0.0233
654;0.0232
656;0.0232
658;0.0226
660;0.0223
662;0.022
664;0.0222
666;0.0216
668;0.0214
670;0.0213
672;0.0208
674;0.0207
676;0.0207
678;0.0201
680;0.0203
682;0.0204
684;0.0198
686;0.0201
688;0.0201
690;0.019
692;0.0194
694;0.0192
696;0.019
698;0.0182
700;0.0183

File: 20180119_1_B_60min.csv
20180119_1_B_60min.csv;;Kemi1\Kemi01;20-01-2018 15:57:03;GENESYS 10S UV-Vis;2L9T161212;4.006
nm;A
400;0.4171
402;0.4152
404;0.4135
406;0.4124
408;0.4113
410;0.4103
412;0.4097
414;0.4089
416;0.4083
418;0.4079
420;0.4071
422;0.4067
424;0.4064
426;0.4061
428;0.4057
430;0.4052
432;0.4047
434;0.404
436;0.4032
438;0.4022
440;0.4008
442;0.3992
444;0.3975
446;0.3956
448;0.393
450;0.3906
452;0.3876
454;0.3843
456;0.3809
458;0.3774
460;0.3733
462;0.3693
464;0.365
466;0.36
468;0.355
470;0.3499
472;0.345
474;0.3395
476;0.334
478;0.328
480;0.3225
482;0.3164
484;0.3108
486;0.3048
488;0.2988
490;0.2922
492;0.2865
494;0.2805
496;0.2739
498;0.2682
500;0.2615
502;0.255
504;0.2492
506;0.2428
508;0.2364
510;0.2302
512;0.2241
514;0.218
516;0.2116
518;0.2057
520;0.1999
522;0.194
524;0.188
526;0.1822
528;0.1761
530;0.1713
532;0.1658
534;0.1601
536;0.155
538;0.1503
540;0.1447
542;0.1399
544;0.1351
546;0.1301
548;0.1253
550;0.1213
552;0.1167
554;0.1126
556;0.1088
558;0.1044
560;0.1007
562;0.0971
564;0.0929
566;0.0898
568;0.0865
570;0.0833
572;0.0806
574;0.0776
576;0.0748
578;0.0727
580;0.07
582;0.0678
584;0.0655
586;0.0635
588;0.0619
590;0.0598
592;0.058
594;0.0561
596;0.0548
598;0.053
600;0.0519
602;0.0508
604;0.0491
606;0.0476
608;0.0468
610;0.0457
612;0.0451
614;0.0433
616;0.0429
618;0.0421
620;0.041
622;0.0401
624;0.0393
626;0.0391
628;0.0385
630;0.0378
632;0.037
634;0.0369
636;0.0364
638;0.0353
640;0.0351
642;0.0354
644;0.0343
646;0.0339
648;0.0336
650;0.034
652;0.0328
654;0.0325
656;0.0324
658;0.0324
660;0.0319
662;0.032
664;0.0316
666;0.0311
668;0.0309
670;0.0306
672;0.031
674;0.0305
676;0.0297
678;0.0298
680;0.0294
682;0.0287
684;0.0288
686;0.0283
688;0.0282
690;0.0276
692;0.0279
694;0.0272
696;0.0272
698;0.0265
700;0.0265

File: 20180119_2_A_0min.csv
20180119_2_A_0min.csv;;Kemi1\Kemi01;20-01-2018 15:57:06;GENESYS 10S UV-Vis;2L9T161212;4.006
nm;A
400;0.9551
402;0.982
404;1.01
406;1.0365
408;1.0636
410;1.089
412;1.1114
414;1.1333
416;1.153
418;1.1707
420;1.1861
422;1.1975
424;1.2071
426;1.2138
428;1.218
430;1.2201
432;1.2202
434;1.2185
436;1.215
438;1.2099
440;1.2034
442;1.1959
444;1.1868
446;1.1775
448;1.168
450;1.1579
452;1.1477
454;1.1377
456;1.1284
458;1.1204
460;1.1132
462;1.1072
464;1.1031
466;1.1003
468;1.0993
470;1.0999
472;1.1027
474;1.106
476;1.1114
478;1.1173
480;1.1243
482;1.1314
484;1.1376
486;1.145
488;1.1511
490;1.1567
492;1.1615
494;1.1651
496;1.1675
498;1.1684
500;1.1674
502;1.1649
504;1.1611
506;1.1553
508;1.1477
510;1.1384
512;1.1268
514;1.1142
516;1.0991
518;1.0829
520;1.0654
522;1.0452
524;1.0231
526;1.0002
528;0.9758
530;0.953
532;0.9248
534;0.8966
536;0.8669
538;0.8383
540;0.8058
542;0.776
544;0.7441
546;0.7107
548;0.6782
550;0.646
552;0.6136
554;0.5822
556;0.5501
558;0.5185
560;0.4878
562;0.4582
564;0.4282
566;0.4009
568;0.3737
570;0.3479
572;0.324
574;0.3012
576;0.2801
578;0.2605
580;0.2412
582;0.2234
584;0.207
586;0.1914
588;0.1781
590;0.1642
592;0.1525
594;0.1415
596;0.1308
598;0.1222
600;0.114
602;0.1067
604;0.0992
606;0.0928
608;0.0873
610;0.0826
612;0.0782
614;0.0735
616;0.0703
618;0.0667
620;0.0635
622;0.061
624;0.0583
626;0.0563
628;0.0541
630;0.0528
632;0.0506
634;0.0497
636;0.0482
638;0.047
640;0.0458
642;0.0452
644;0.0438
646;0.0434
648;0.0426
650;0.0424
652;0.0413
654;0.0406
656;0.0402
658;0.0398
660;0.0389
662;0.0386
664;0.0381
666;0.0377
668;0.0372
670;0.0368
672;0.0362
674;0.0362
676;0.0356
678;0.0357
680;0.0351
682;0.0346
684;0.0348
686;0.0341
688;0.0337
690;0.0336
692;0.0336
694;0.0326
696;0.0328
698;0.0323
700;0.0322

File: 20180119_2_A_30min.csv
20180119_2_A_30min.csv;;Kemi1\Kemi01;20-01-2018 15:57:10;GENESYS 10S UV-Vis;2L9T161212;4.006
nm;A
400;0.5858
402;0.5957
404;0.6062
406;0.6169
408;0.6278
410;0.6378
412;0.647
414;0.6558
416;0.664
418;0.6713
420;0.6775
422;0.6822
424;0.6862
426;0.6892
428;0.691
430;0.6917
432;0.6919
434;0.6912
436;0.6896
438;0.6874
440;0.6846
442;0.6811
444;0.6772
446;0.673
448;0.6687
450;0.6641
452;0.6593
454;0.6547
456;0.6504
458;0.6466
460;0.6431
462;0.6402
464;0.6379
466;0.6366
468;0.6357
470;0.6358
472;0.6365
474;0.6381
476;0.6401
478;0.6424
480;0.6454
482;0.6481
484;0.6507
486;0.6535
488;0.6556
490;0.6577
492;0.6593
494;0.6603
496;0.6607
498;0.6603
500;0.6587
502;0.6565
504;0.6536
506;0.6499
508;0.645
510;0.6394
512;0.6326
514;0.6252
516;0.617
518;0.6082
520;0.5985
522;0.5875
524;0.5757
526;0.5637
528;0.5503
530;0.5386
532;0.5237
534;0.5087
536;0.4934
538;0.4781
540;0.4609
542;0.4454
544;0.4284
546;0.4107
548;0.3936
550;0.3769
552;0.3595
554;0.3429
556;0.326
558;0.3093
560;0.2931
562;0.2774
564;0.2618
566;0.2472
568;0.233
570;0.2192
572;0.2065
574;0.1947
576;0.1831
578;0.1729
580;0.1625
582;0.1529
584;0.1439
586;0.1358
588;0.1284
590;0.1207
592;0.1141
594;0.108
596;0.1021
598;0.0971
600;0.0926
602;0.0881
604;0.084
606;0.0805
608;0.0769
610;0.0742
612;0.0715
614;0.0684
616;0.0659
618;0.0639
620;0.0622
622;0.0602
624;0.058
626;0.057
628;0.0552
630;0.0538
632;0.0528
634;0.0519
636;0.0509
638;0.0502
640;0.0487
642;0.0483
644;0.0469
646;0.0463
648;0.0454
650;0.0454
652;0.0444
654;0.0434
656;0.0429
658;0.0426
660;0.0418
662;0.0413
664;0.0414
666;0.0404
668;0.0397
670;0.0393
672;0.039
674;0.0387
676;0.0378
678;0.038
680;0.0375
682;0.037
684;0.0368
686;0.0365
688;0.0357
690;0.0358
692;0.0356
694;0.0354
696;0.0352
698;0.035
700;0.0345

File: 20180119_2_A_60min.csv
20180119_2_A_60min.csv;;Kemi1\Kemi01;20-01-2018 15:57:13;GENESYS 10S UV-Vis;2L9T161212;4.006
nm;A
400;0.5194
402;0.5284
404;0.538
406;0.5475
408;0.5573
410;0.5665
412;0.5748
414;0.5829
416;0.5902
418;0.5969
420;0.602
422;0.6062
424;0.6096
426;0.6121
428;0.6137
430;0.6142
432;0.614
434;0.6132
436;0.6118
438;0.6097
440;0.6069
442;0.6038
444;0.6001
446;0.5964
448;0.5923
450;0.588
452;0.5836
454;0.5794
456;0.5754
458;0.5719
460;0.5684
462;0.5657
464;0.5635
466;0.5621
468;0.5608
470;0.5608
472;0.5614
474;0.5623
476;0.5637
478;0.5654
480;0.5679
482;0.57
484;0.5717
486;0.5742
488;0.5757
490;0.5773
492;0.5785
494;0.5792
496;0.5791
498;0.5785
500;0.5771
502;0.5748
504;0.572
506;0.5684
508;0.5639
510;0.5587
512;0.5526
514;0.5459
516;0.5381
518;0.5301
520;0.5215
522;0.5114
524;0.5005
526;0.4898
528;0.4776
530;0.4669
532;0.4535
534;0.4401
536;0.4261
538;0.4127
540;0.3973
542;0.3831
544;0.3683
546;0.3527
548;0.3372
550;0.3224
552;0.307
554;0.2923
556;0.2772
558;0.2626
560;0.2484
562;0.2341
564;0.2203
566;0.2078
568;0.195
570;0.183
572;0.1717
574;0.1607
576;0.1512
578;0.1419
580;0.1327
582;0.1241
584;0.1161
586;0.1091
588;0.1023
590;0.0957
592;0.0899
594;0.0846
596;0.0793
598;0.075
600;0.0707
602;0.0668
604;0.0631
606;0.0599
608;0.0571
610;0.0547
612;0.0523
614;0.049
616;0.0477
618;0.0455
620;0.0437
622;0.0423
624;0.0406
626;0.0394
628;0.0378
630;0.0367
632;0.0359
634;0.0349
636;0.0343
638;0.0334
640;0.0321
642;0.0321
644;0.0308
646;0.0301
648;0.0296
650;0.0293
652;0.0285
654;0.0278
656;0.0275
658;0.0271
660;0.0264
662;0.0261
664;0.0259
666;0.0248
668;0.0243
670;0.0242
672;0.0237
674;0.0239
676;0.0227
678;0.023
680;0.0226
682;0.0222
684;0.022
686;0.0213
688;0.0212
690;0.0212
692;0.021
694;0.0206
696;0.0205
698;0.0204
700;0.02

File: 20180119_2_B_0min.csv
20180119_2_B_0min.csv;;Kemi1\Kemi01;20-01-2018 15:57:16;GENESYS 10S UV-Vis;2L9T161212;4.006
nm;A
400;0.5461
402;0.5516
404;0.5574
406;0.5638
408;0.5701
410;0.576
412;0.5817
414;0.5869
416;0.5918
418;0.5961
420;0.5996
422;0.6026
424;0.6053
426;0.6073
428;0.6089
430;0.6101
432;0.6107
434;0.6107
436;0.6103
438;0.6095
440;0.6084
442;0.6069
444;0.6051
446;0.6033
448;0.601
450;0.5985
452;0.596
454;0.5935
456;0.5911
458;0.5892
460;0.5871
462;0.5855
464;0.5843
466;0.5836
468;0.5831
470;0.5831
472;0.5837
474;0.5844
476;0.5857
478;0.5869
480;0.5885
482;0.59
484;0.591
486;0.5923
488;0.5928
490;0.5933
492;0.5934
494;0.5931
496;0.5919
498;0.5905
500;0.5875
502;0.5843
504;0.5806
506;0.5763
508;0.5709
510;0.565
512;0.5584
514;0.5511
516;0.543
518;0.5351
520;0.5261
522;0.5165
524;0.5059
526;0.4954
528;0.4838
530;0.4735
532;0.4611
534;0.4484
536;0.4352
538;0.4226
540;0.4083
542;0.3949
544;0.3808
546;0.3661
548;0.3515
550;0.3375
552;0.3231
554;0.309
556;0.2949
558;0.2812
560;0.2673
562;0.2547
564;0.2413
566;0.2297
568;0.218
570;0.2068
572;0.1966
574;0.1865
576;0.1774
578;0.1689
580;0.1606
582;0.1526
584;0.1455
586;0.1388
588;0.1326
590;0.1266
592;0.1208
594;0.1159
596;0.1111
598;0.1066
600;0.1028
602;0.0993
604;0.0953
606;0.0922
608;0.0896
610;0.0868
612;0.0847
614;0.0817
616;0.0797
618;0.0778
620;0.0759
622;0.0741
624;0.0724
626;0.0716
628;0.0697
630;0.0686
632;0.0676
634;0.0664
636;0.0657
638;0.0645
640;0.0631
642;0.0626
644;0.0617
646;0.0607
648;0.06
650;0.0598
652;0.0588
654;0.0579
656;0.0577
658;0.0569
660;0.0562
662;0.0557
664;0.0554
666;0.0547
668;0.0544
670;0.054
672;0.0534
674;0.0531
676;0.0524
678;0.0518
680;0.0518
682;0.0504
684;0.0499
686;0.0487
688;0.0484
690;0.0477
692;0.0476
694;0.0471
696;0.0465
698;0.0456
700;0.0448

File: 20180119_2_B_60min.csv
20180119_2_B_60min.csv;;Kemi1\Kemi01;20-01-2018 16:01:12;GENESYS 10S UV-Vis;2L9T161212;4.006
nm;A
400;0.1894
402;0.1901
404;0.1912
406;0.1925
408;0.1937
410;0.1948
412;0.1962
414;0.1973
416;0.1982
418;0.1992
420;0.1998
422;0.2004
424;0.2007
426;0.2012
428;0.2015
430;0.2014
432;0.2015
434;0.201
436;0.2008
438;0.2002
440;0.1997
442;0.1988
444;0.1978
446;0.1966
448;0.1955
450;0.1942
452;0.193
454;0.1914
456;0.1897
458;0.1881
460;0.1863
462;0.1845
464;0.1831
466;0.1813
468;0.1794
470;0.1779
472;0.1763
474;0.1748
476;0.1729
478;0.1713
480;0.1697
482;0.1678
484;0.1662
486;0.1649
488;0.1631
490;0.1612
492;0.1595
494;0.1579
496;0.1558
498;0.1536
500;0.1514
502;0.1492
504;0.1467
506;0.1444
508;0.1414
510;0.139
512;0.1362
514;0.1336
516;0.1305
518;0.1274
520;0.1243
522;0.1212
524;0.1174
526;0.1141
528;0.1107
530;0.1076
532;0.1042
534;0.1006
536;0.0968
538;0.0938
540;0.09
542;0.0864
544;0.0829
546;0.0791
548;0.0756
550;0.0717
552;0.0685
554;0.0647
556;0.0619
558;0.0585
560;0.0553
562;0.0524
564;0.049
566;0.0465
568;0.0438
570;0.0411
572;0.0385
574;0.0362
576;0.0341
578;0.0321
580;0.03
582;0.0279
584;0.0262
586;0.0247
588;0.0233
590;0.0218
592;0.0204
594;0.0195
596;0.0183
598;0.0171
600;0.0163
602;0.0151
604;0.0146
606;0.0134
608;0.013
610;0.0126
612;0.0119
614;0.0113
616;0.0108
618;0.0102
620;0.0104
622;0.0097
624;0.0097
626;0.0091
628;0.0091
630;0.0085
632;0.0084
634;0.0082
636;0.008
638;0.008
640;0.0082
642;0.0082
644;0.0069
646;0.0076
648;0.007
650;0.0072
652;0.0068
654;0.0066
656;0.0069
658;0.0069
660;0.0064
662;0.0059
664;0.0061
666;0.0061
668;0.006
670;0.0064
672;0.0063
674;0.0064
676;0.0062
678;0.0064
680;0.0065
682;0.0057
684;0.0058
686;0.0056
688;0.0058
690;0.0052
692;0.0055
694;0.0055
696;0.0054
698;0.0041
700;0.0046