Folder: graphene-production/data/derived_data/xps/20171212_Gr-NH2 (part 2)

File: 20171212_ExGr_N1s_2.txt
C:\Users\emilbp\PhD\Projects\graphene-production\data\raw_data\xps\20171212_Gr-NH2\20171130_Gr-NH2.vms
N 1s/14
	Characteristic Energy eV	1486.69	Acquisition Time s	1.194
KE_N 1s/14	BE_N 1s/14	CPS_N 1s/14	Background_N 1s/14
1076.36	410.334	1820.77	1820.77
1076.46	410.234	1824.96	1824.96
1076.56	410.134	1855.11	1855.11
1076.66	410.034	1846.73	1846.73
1076.76	409.934	1826.63	1826.63
1076.86	409.834	1842.55	1842.55
1076.96	409.734	1846.73	1846.73
1077.06	409.634	1804.02	1804.02
1077.16	409.534	1881.91	1881.91
1077.26	409.434	1906.2	1906.2
1077.36	409.334	1806.53	1806.53
1077.46	409.234	1819.93	1819.93
1077.56	409.134	1820.77	1820.77
1077.66	409.034	1872.7	1872.7
1077.76	408.934	1857.62	1857.62
1077.86	408.834	1859.3	1859.3
1077.96	408.734	1861.81	1861.81
1078.06	408.634	1888.61	1888.61
1078.16	408.534	1874.37	1874.37
1078.26	408.434	1881.07	1881.07
1078.36	408.334	1816.58	1816.58
1078.46	408.234	1911.22	1911.22
1078.56	408.134	1876.88	1876.88
1078.66	408.034	1842.55	1842.55
1078.76	407.934	1821.61	1821.61
1078.86	407.834	1814.07	1814.07
1078.96	407.734	1841.71	1841.71
1079.06	407.634	1826.63	1826.63
1079.16	407.534	1831.66	1831.66
1079.26	407.434	1881.91	1881.91
1079.36	407.334	1855.11	1855.11
1079.46	407.234	1889.45	1889.45
1079.56	407.134	1829.15	1829.15
1079.66	407.034	1873.53	1873.53
1079.76	406.934	1918.76	1918.76
1079.86	406.834	1850.08	1850.08
1079.96	406.734	1885.26	1885.26
1080.06	406.634	1871.02	1871.02
1080.16	406.534	1845.9	1845.9
1080.26	406.434	1863.48	1863.48
1080.36	406.334	1873.53	1873.53
1080.46	406.234	1918.76	1918.76
1080.56	406.134	1890.28	1890.28
1080.66	406.034	1894.47	1894.47
1080.76	405.934	1885.26	1885.26
1080.86	405.834	1937.19	1937.19
1080.96	405.734	1917.92	1917.92
1081.06	405.634	1924.62	1924.62
1081.16	405.534	1865.16	1865.16
1081.26	405.434	1861.81	1861.81
1081.36	405.334	1787.27	1787.27
1081.46	405.234	1903.69	1903.69
1081.56	405.134	1893.63	1893.63
1081.66	405.034	1869.35	1869.35
1081.76	404.934	1879.4	1879.4
1081.86	404.834	1903.69	1903.69
1081.96	404.734	1873.53	1873.53
1082.06	404.634	1840.87	1840.87
1082.16	404.534	1859.3	1859.3
1082.26	404.434	1878.56	1878.56
1082.36	404.334	1882.75	1882.75
1082.46	404.234	1830.82	1830.82
1082.56	404.134	1847.57	1847.57
1082.66	404.034	1835.85	1835.85
1082.76	403.934	1841.71	1841.71
1082.86	403.834	1873.53	1873.53
1082.96	403.734	1895.31	1895.31
1083.06	403.634	1918.76	1918.76
1083.16	403.534	1886.1	1886.1
1083.26	403.434	1943.89	1943.89
1083.36	403.334	1860.97	1860.97
1083.46	403.234	1911.22	1911.22
1083.56	403.134	1924.62	1924.62
1083.66	403.034	1977.39	1977.39
1083.76	402.934	1974.04	1974.04
1083.86	402.834	1939.7	1939.7
1083.96	402.734	1935.51	1935.51
1084.06	402.634	1893.63	1893.63
1084.16	402.534	1971.52	1971.52
1084.26	402.434	1941.37	1941.37
1084.36	402.334	2015.08	2015.08
1084.46	402.234	1998.32	1998.32
1084.56	402.134	1976.55	1976.55
1084.66	402.034	1961.47	1961.47
1084.76	401.934	2006.7	2006.7
1084.86	401.834	2043.55	2043.55
1084.96	401.734	2034.34	2034.34
1085.06	401.634	2024.29	2024.29
1085.16	401.534	2051.09	2051.09
1085.26	401.434	2014.24	2014.24
1085.36	401.334	2054.44	2054.44
1085.46	401.234	2028.48	2028.48
1085.56	401.134	1992.46	1992.46
1085.66	401.034	2032.66	2032.66
1085.76	400.934	1985.76	1985.76
1085.86	400.834	1954.77	1954.77
1085.96	400.734	1975.71	1975.71
1086.06	400.634	1917.92	1917.92
1086.16	400.534	2021.78	2021.78
1086.26	400.434	2010.05	2010.05
1086.36	400.334	2009.21	2009.21
1086.46	400.234	1977.39	1977.39
1086.56	400.134	1943.05	1943.05
1086.66	400.034	1923.79	1923.79
1086.76	399.934	2021.78	2021.78
1086.86	399.834	1978.22	1978.22
1086.96	399.734	1996.65	1996.65
1087.06	399.634	1987.44	1987.44
1087.16	399.534	1963.99	1963.99
1087.26	399.434	1986.6	1986.6
1087.36	399.334	1972.36	1972.36
1087.46	399.234	1960.64	1960.64
1087.56	399.134	1941.37	1941.37
1087.66	399.034	1930.49	1930.49
1087.76	398.934	1940.54	1940.54
1087.86	398.834	2001.68	2001.68
1087.96	398.734	1887.77	1887.77
1088.06	398.634	1900.34	1900.34
1088.16	398.534	1850.08	1850.08
1088.26	398.434	1925.46	1925.46
1088.36	398.334	1847.57	1847.57
1088.46	398.234	1801.51	1801.51
1088.56	398.134	1866.83	1866.83
1088.66	398.034	1882.75	1882.75
1088.76	397.934	1827.47	1827.47
1088.86	397.834	1862.65	1862.65
1088.96	397.734	1825.8	1825.8
1089.06	397.634	1862.65	1862.65
1089.16	397.534	1863.48	1863.48
1089.26	397.434	1907.87	1907.87
1089.36	397.334	1924.62	1924.62
1089.46	397.234	1881.91	1881.91
1089.56	397.134	1878.56	1878.56
1089.66	397.034	1864.32	1864.32
1089.76	396.934	1819.1	1819.1
1089.86	396.834	1863.48	1863.48
1089.96	396.734	1862.65	1862.65
1090.06	396.634	1904.52	1904.52
1090.16	396.534	1885.26	1885.26
1090.26	396.434	1908.71	1908.71
1090.36	396.334	1898.66	1898.66
1090.46	396.234	1899.5	1899.5
1090.56	396.134	1844.22	1844.22
1090.66	396.034	1847.57	1847.57
1090.76	395.934	1837.52	1837.52
1090.86	395.834	1860.13	1860.13
1090.96	395.734	1853.43	1853.43
1091.06	395.634	1866.83	1866.83
1091.16	395.534	1887.77	1887.77
1091.26	395.434	1849.25	1849.25
1091.36	395.334	1918.76	1918.76
1091.46	395.234	1959.8	1959.8
1091.56	395.134	1896.15	1896.15
1091.66	395.034	1827.47	1827.47
1091.76	394.934	1863.48	1863.48
1091.86	394.834	1885.26	1885.26
1091.96	394.734	1838.36	1838.36
1092.06	394.634	1881.91	1881.91
1092.16	394.534	1878.56	1878.56
1092.26	394.434	1848.41	1848.41
1092.36	394.334	1823.28	1823.28
1092.46	394.234	1857.62	1857.62
1092.56	394.134	1862.65	1862.65
1092.66	394.034	1871.86	1871.86
1092.76	393.934	1911.22	1911.22
1092.86	393.834	1914.57	1914.57
1092.96	393.734	1902.01	1902.01
1093.06	393.634	1881.07	1881.07
1093.16	393.534	1856.78	1856.78
1093.26	393.434	1914.57	1914.57
1093.36	393.334	1872.7	1872.7
1093.46	393.234	1896.15	1896.15
1093.56	393.134	1894.47	1894.47
1093.66	393.034	1886.93	1886.93
1093.76	392.934	1848.41	1848.41
1093.86	392.834	1866.83	1866.83
1093.96	392.734	1953.94	1953.94
1094.06	392.634	1879.4	1879.4
1094.16	392.534	1880.23	1880.23
1094.26	392.434	1874.37	1874.37
1094.36	392.334	1892.8	1892.8
1094.46	392.234	1887.77	1887.77
1094.56	392.134	1851.76	1851.76
1094.66	392.034	1879.4	1879.4
1094.76	391.934	1871.02	1871.02
1094.86	391.834	1890.28	1890.28
1094.96	391.734	1855.11	1855.11
1095.06	391.634	1889.45	1889.45
1095.16	391.534	1855.11	1855.11
1095.26	391.434	1922.11	1922.11
1095.36	391.334	1882.75	1882.75
1095.46	391.234	1835.01	1835.01
1095.56	391.134	1846.73	1846.73
1095.66	391.034	1801.51	1801.51
1095.76	390.934	1866	1866
1095.86	390.834	1830.82	1830.82
1095.96	390.734	1915.41	1915.41
1096.06	390.634	1906.2	1906.2
1096.16	390.534	1918.76	1918.76
1096.26	390.434	1866	1866
1096.36	390.334	1871.02	1871.02
1096.46	390.234	1843.38	1843.38

File: 20171212_GrNH2_C1s_deconvolution_1.txt
C:\Users\emilbp\PhD\Projects\graphene-production\data\raw_data\xps\20171212_Gr-NH2\20171130_Gr-NH2.vms
C 1s/8
	Characteristic Energy eV	1486.69	Acquisition Time s	1
KE_C 1s/8	BE_C 1s/8	CPS_C 1s/8	C=C (sp2)_1_C 1s/8	C-O/C-N_2_C 1s/8	C=O_3_C 1s/8	p-p* (SUS)_4_C 1s/8	C-C (sp3)_5_C 1s/8	Background_C 1s/8	Envelope_C 1s/8
1182.87	303.824	1667	1723.97	1667	1667	1667	1667	1667	1723.97
1183.07	303.624	1641	1698.31	1641	1641	1641	1641	1641	1698.31
1183.27	303.424	1597	1654.65	1597	1597	1597	1597	1597	1654.65
1183.47	303.224	1630	1687.99	1630	1630	1630	1630	1630	1687.99
1183.67	303.024	1572	1630.36	1572	1572	1572	1572	1572	1630.36
1183.87	302.824	1662	1720.74	1662	1662	1662	1662	1662	1720.74
1184.07	302.624	1558	1617.11	1558	1558	1558	1558	1558	1617.11
1184.27	302.424	1483	1542.5	1483	1483	1483	1483	1483	1542.5
1184.47	302.224	1514	1573.91	1514	1514	1514	1514	1514	1573.91
1184.67	302.024	1498	1558.32	1498	1498	1498	1498	1498	1558.32
1184.87	301.824	1421	1481.73	1421	1421	1421	1421	1421	1481.73
1185.07	301.624	1403	1464.18	1403	1403	1403	1403	1403	1464.18
1185.27	301.424	1435	1496.63	1435	1435	1435	1435	1435	1496.63
1185.47	301.224	1334	1396.08	1334	1334	1334	1334	1334	1396.08
1185.67	301.024	1377	1439.57	1377	1377	1377	1377	1377	1439.57
1185.87	300.824	1339	1402.06	1339	1339	1339	1339	1339	1402.06
1186.07	300.624	1260	1323.56	1260	1260	1260	1260	1260	1323.56
1186.27	300.424	1307	1371.08	1307	1307	1307	1307	1307	1371.08
1186.47	300.224	1258	1322.63	1258	1258	1258	1258	1258	1322.63
1186.67	300.024	1247	1312.18	1247	1247	1247	1247	1247	1312.18
1186.87	299.824	1273	1338.74	1273	1273	1273	1273	1273	1338.74
1187.07	299.624	1240	1306.35	1240	1240	1240	1240	1240	1306.35
1187.27	299.424	1190	1256.96	1190	1190	1190	1190	1190	1256.96
1187.47	299.224	1206	1273.58	1206	1206	1206	1206	1206	1273.58
1187.67	299.024	1193	1261.25	1193	1193	1193	1193	1193	1261.25
1187.87	298.824	1264	1332.94	1264	1264	1264	1264	1264	1332.94
1188.07	298.624	1267	1336.62	1267	1267	1267	1267	1267	1336.62
1188.27	298.424	1182	1252.36	1182	1182	1182	1182	1182	1252.36
1188.47	298.224	1192	1263.13	1192	1192	1192	1192	1192	1263.13
1188.67	298.024	1204	1275.9	1204	1204	1204	1204	1204	1275.9
1188.87	297.824	1124	1196.7	1124	1124	1124	1124	1124	1196.7
1189.07	297.624	1151	1224.58	1151	1151	1151	1151	1151	1224.58
1189.27	297.424	1160	1234.46	1160	1160	1160	1160	1160	1234.46
1189.47	297.224	1199	1274.34	1199	1199	1199	1199	1199	1274.34
1189.67	297.024	1172	1248.33	1172	1172	1172	1172	1172	1248.33
1189.87	296.824	1157	1234.33	1157	1157	1157	1157	1157	1234.33
1190.07	296.624	1151	1229.34	1151	1151	1151	1151	1151	1229.34
1190.27	296.424	1176	1255.43	1176	1176	1176	1176	1176	1255.43
1190.47	296.224	1129	1209.59	1129	1129	1129	1129	1129	1209.59
1190.67	296.024	1141	1222.76	1141	1141	1141	1141	1141	1222.76
1190.87	295.824	1159	1241.96	1159	1159	1159	1159	1159	1241.96
1191.07	295.624	1175	1259.32	1175	1175	1175	1175	1175	1259.32
1191.27	295.424	1164	1249.67	1164	1164	1164	1164	1164	1249.68
1191.47	295.224	1202	1289.03	1202	1202	1202.01	1202	1202	1289.04
1191.67	295.024	1283	1371.61	1283	1283	1283.03	1283	1283	1371.63
1191.87	294.824	1294	1384.21	1294	1294	1294.06	1294	1294	1384.26
1192.07	294.624	1316	1407.8	1316	1316	1316.13	1316	1316	1407.93
1192.27	294.424	1376	1469.58	1376	1376	1376.27	1376	1376	1469.86
1192.47	294.224	1340	1435.49	1340	1340	1340.56	1340	1340	1436.06
1192.67	294.024	1312	1409.41	1312	1312	1313.13	1312	1312	1410.54
1192.87	293.824	1386	1440.63	1341.21	1341.21	1343.41	1341.21	1341.21	1442.83
1193.07	293.624	1367	1442.88	1341.15	1341.15	1345.27	1341.15	1341.15	1447.01
1193.27	293.424	1434	1444.95	1340.89	1340.9	1348.38	1340.89	1340.89	1452.45
1193.47	293.224	1431	1446.87	1340.49	1340.52	1353.64	1340.49	1340.49	1460.04
1193.67	293.024	1517	1449	1339.81	1339.88	1362.11	1339.81	1339.81	1471.37
1193.87	292.824	1461	1451.44	1339.39	1339.54	1375.93	1339.39	1339.39	1488.14
1194.07	292.624	1572	1453.49	1338.57	1338.91	1396.47	1338.57	1338.57	1511.73
1194.27	292.424	1607	1455.77	1337.55	1338.26	1426.04	1337.55	1337.55	1544.97
1194.47	292.224	1669	1458.19	1336.36	1337.8	1466.6	1336.36	1336.36	1589.87
1194.67	292.024	1755	1460.16	1334.72	1337.54	1518.97	1334.72	1334.72	1647.22
1194.87	291.824	1770	1462.24	1332.93	1338.27	1582.91	1332.92	1332.92	1717.58
1195.07	291.624	1794	1464.98	1331.01	1340.8	1655.45	1331	1331	1799.23
1195.27	291.424	1879	1467.52	1328.9	1346.24	1730.41	1328.88	1328.88	1886.41
1195.47	291.224	1935	1469.74	1326.48	1356.18	1798.55	1326.45	1326.45	1971.6
1195.67	291.024	1992	1473.06	1323.73	1372.95	1849.43	1323.66	1323.66	2048.18
1195.87	290.824	2026	1476.39	1320.96	1399.73	1874.16	1320.8	1320.8	2108.86
1196.07	290.624	2085	1479.4	1317.98	1439.55	1867.38	1317.61	1317.61	2151.48
1196.27	290.424	2152	1483.63	1315	1495.66	1829.85	1314.19	1314.19	2181.56
1196.47	290.224	2262	1488.4	1312.09	1570.18	1767.67	1310.41	1310.41	2207.11
1196.67	290.024	2307	1492.84	1309.69	1663.26	1690.56	1306.3	1306.3	2237.47
1196.87	289.824	2335	1498.35	1308.81	1771.81	1609.24	1302.15	1302.15	2281.77
1197.07	289.624	2387	1506.41	1310.47	1887.62	1532.03	1297.84	1297.84	2343.01
1197.27	289.424	2425	1514.22	1316.44	1997.62	1464.22	1293.29	1293.29	2412.63
1197.47	289.224	2457	1521.8	1329.51	2085.96	1408.22	1288.5	1288.5	2479.98
1197.67	289.024	2528	1535.5	1353.72	2137.32	1364.12	1283.49	1283.49	2540.19
1197.87	288.824	2540	1549.36	1394.72	2141.53	1330.69	1278.37	1278.37	2581.17
1198.07	288.624	2611	1562.89	1459.23	2096.55	1305.73	1272.94	1272.94	2605.59
1198.27	288.424	2652	1584.32	1555.17	2009.79	1287.3	1267.45	1267.45	2634.23
1198.47	288.224	2660	1610.11	1689.86	1895.45	1273.38	1261.78	1261.78	2683.48
1198.67	288.024	2839	1635.15	1867.99	1769.28	1261.91	1255.35	1255.35	2768.28
1198.87	287.824	2928	1663.28	2090.2	1645.93	1252.2	1248.61	1248.61	2905.78
1199.07	287.624	3179	1703.84	2348.01	1534.82	1243.02	1241.12	1241.12	3106.31
1199.27	287.424	3375	1753.72	2622	1440.66	1233.48	1232.51	1232.51	3352.33
1199.47	287.224	3580	1816.42	2881.77	1364.82	1223.52	1223.04	1223.04	3617.41
1199.67	287.024	3855	1896.12	3089.63	1305.49	1212.62	1212.39	1212.39	3866.7
1199.87	286.824	4091	1999.42	3209.78	1259.67	1200.81	1200.71	1200.71	4067.56
1200.07	286.624	4142	2136.35	3218.77	1224.71	1188.71	1188.68	1188.66	4202.57
1200.27	286.424	4196	2321.14	3112.71	1197.76	1176.49	1176.81	1176.47	4279.04
1200.47	286.224	4356	2574.59	2908.15	1175.71	1163.57	1167.49	1163.56	4335.27
1200.67	286.024	4568	2930.05	2638.31	1156.42	1149.72	1179.37	1149.72	4454.99
1200.87	285.824	4936	3442.49	2341.63	1138.37	1134.79	1279.18	1134.79	4797.31
1201.07	285.624	5547	4213.73	2050.18	1119.36	1117.51	1547.62	1117.51	5578.36
1201.27	285.424	6817	5482.02	1784.7	1096.41	1095.48	1791.46	1095.48	6868.15
1201.47	285.224	8975	7878.62	1553.87	1065.98	1065.53	1619.19	1065.53	8921.06
1201.67	285.024	13410	12803.9	1352.46	1020.18	1019.97	1248.13	1019.97	13364.8
1201.87	284.824	21361	21432.8	1163.76	945.587	945.492	1000.95	945.492	21706.6
1202.07	284.624	30128	29557.1	971.383	833.216	833.175	841.76	833.175	29703.9
1202.27	284.424	26788	26747.9	802.998	718.531	718.514	719.386	718.514	26833.3
1202.47	284.224	14224	14755.1	699.353	649.475	649.468	649.526	649.468	14805
1202.67	284.024	5835	5382.03	649.336	620.877	620.874	620.876	620.874	5410.49
1202.87	283.824	2488	1658.35	626.306	610.612	610.611	610.611	610.611	1674.04
1203.07	283.624	1231	761.767	615.335	606.955	606.955	606.955	606.955	770.148
1203.27	283.424	723	621.607	610.36	606.025	606.025	606.025	606.025	625.943
1203.47	283.224	501	502.074	503.169	501	501	501	501	504.243
1203.67	283.024	377	377.051	378.049	377	377	377	377	378.1
1203.87	282.824	330	330.002	330.49	330	330	330	330	330.492
1204.07	282.624	305	305	305.222	305	305	305	305	305.222
1204.27	282.424	294	294	294.097	294	294	294	294	294.097
1204.47	282.224	243	243	243.041	243	243	243	243	243.041
1204.67	282.024	226	226	226.017	226	226	226	226	226.017
1204.87	281.824	237	237	237.007	237	237	237	237	237.007
1205.07	281.624	201	201	201.003	201	201	201	201	201.003
1205.27	281.424	179	179	179.001	179	179	179	179	179.001
1205.47	281.224	180	180	180	180	180	180	180	180
1205.67	281.024	183	183	183	183	183	183	183	183
1205.87	280.824	164	164	164	164	164	164	164	164
1206.07	280.624	175	175	175	175	175	175	175	175
1206.27	280.424	150	150	150	150	150	150	150	150
1206.47	280.224	158	158	158	158	158	158	158	158
1206.67	280.024	163	163	163	163	163	163	163	163
1206.87	279.824	164	164	164	164	164	164	164	164
1207.07	279.624	140	140	140	140	140	140	140	140
1207.27	279.424	150	150	150	150	150	150	150	150
1207.47	279.224	151	151	151	151	151	151	151	151
1207.67	279.024	137	137	137	137	137	137	137	137
1207.87	278.824	156	156	156	156	156	156	156	156
1208.07	278.624	139	139	139	139	139	139	139	139
1208.27	278.424	159	159	159	159	159	159	159	159
1208.47	278.224	141	141	141	141	141	141	141	141
1208.67	278.024	153	153	153	153	153	153	153	153
1208.87	277.824	155	155	155	155	155	155	155	155

File: 20171212_GrNH2_C1s_deconvolution_2.txt
C:\Users\emilbp\PhD\Projects\graphene-production\data\raw_data\xps\20171212_Gr-NH2\20171130_Gr-NH2.vms
C 1s/3
	Characteristic Energy eV	1486.69	Acquisition Time s	1
KE_C 1s/3	BE_C 1s/3	CPS_C 1s/3	C=C (sp2)_1_C 1s/3	C-O/C-N_2_C 1s/3	C=O_3_C 1s/3	p-p* (SUS)_4_C 1s/3	C-C (sp3)_5_C 1s/3	Background_C 1s/3	Envelope_C 1s/3
1183.08	303.612	1857	1922.88	1857	1857	1857	1857	1857	1922.88
1183.28	303.412	1755	1821.26	1755	1755	1755	1755	1755	1821.26
1183.48	303.212	1832	1898.65	1832	1832	1832	1832	1832	1898.65
1183.68	303.012	1706	1773.06	1706	1706	1706	1706	1706	1773.06
1183.88	302.812	1696	1763.47	1696	1696	1696	1696	1696	1763.47
1184.08	302.612	1674	1741.89	1674	1674	1674	1674	1674	1741.89
1184.28	302.412	1666	1734.33	1666	1666	1666	1666	1666	1734.33
1184.48	302.212	1612	1680.78	1612	1612	1612	1612	1612	1680.78
1184.68	302.012	1625	1694.23	1625	1625	1625	1625	1625	1694.23
1184.88	301.812	1585	1654.71	1585	1585	1585	1585	1585	1654.71
1185.08	301.612	1474	1544.2	1474	1474	1474	1474	1474	1544.2
1185.28	301.412	1541	1611.69	1541	1541	1541	1541	1541	1611.69
1185.48	301.212	1533	1604.21	1533	1533	1533	1533	1533	1604.21
1185.68	301.012	1498	1569.75	1498	1498	1498	1498	1498	1569.75
1185.88	300.812	1427	1499.28	1427	1427	1427	1427	1427	1499.28
1186.08	300.612	1355	1427.84	1355	1355	1355	1355	1355	1427.84
1186.28	300.412	1423	1496.44	1423	1423	1423	1423	1423	1496.44
1186.48	300.212	1399	1473.03	1399	1399	1399	1399	1399	1473.03
1186.68	300.012	1458	1532.63	1458	1458	1458	1458	1458	1532.63
1186.88	299.812	1374	1449.29	1374	1374	1374	1374	1374	1449.29
1187.08	299.612	1330	1405.95	1330	1330	1330	1330	1330	1405.95
1187.28	299.412	1384	1460.6	1384	1384	1384	1384	1384	1460.6
1187.48	299.212	1292	1369.33	1292	1292	1292	1292	1292	1369.33
1187.68	299.012	1339	1417.06	1339	1339	1339	1339	1339	1417.06
1187.88	298.812	1338	1416.8	1338	1338	1338	1338	1338	1416.8
1188.08	298.612	1372	1451.59	1372	1372	1372	1372	1372	1451.59
1188.28	298.412	1356	1436.41	1356	1356	1356	1356	1356	1436.41
1188.48	298.212	1300	1381.23	1300	1300	1300	1300	1300	1381.23
1188.68	298.012	1316	1398.09	1316	1316	1316	1316	1316	1398.09
1188.88	297.812	1243	1326.02	1243	1243	1243	1243	1243	1326.02
1189.08	297.612	1310	1393.95	1310	1310	1310	1310	1310	1393.95
1189.28	297.412	1244	1328.9	1244	1244	1244	1244	1244	1328.9
1189.48	297.212	1315	1400.95	1315	1315	1315	1315	1315	1400.95
1189.68	297.012	1283	1370	1283	1283	1283	1283	1283	1370
1189.88	296.812	1239	1327.05	1239	1239	1239	1239	1239	1327.05
1190.08	296.612	1283	1372.24	1283	1283	1283	1283	1283	1372.24
1190.28	296.412	1239	1329.45	1239	1239	1239	1239	1239	1329.45
1190.48	296.212	1240	1331.65	1240	1240	1240	1240	1240	1331.65
1190.68	296.012	1282	1374.98	1282	1282	1282	1282	1282	1374.99
1190.88	295.812	1354	1448.38	1354	1354	1354	1354	1354	1448.38
1191.08	295.612	1345	1440.77	1345	1345	1345	1345	1345	1440.77
1191.28	295.412	1355	1452.26	1355	1355	1355.01	1355	1355	1452.26
1191.48	295.212	1403	1501.88	1403	1403	1403.01	1403	1403	1501.9
1191.68	295.012	1451	1551.5	1451	1451	1451.03	1451	1451	1551.54
1191.88	294.812	1423	1525.18	1423	1423	1423.07	1423	1423	1525.25
1192.08	294.612	1490	1594.09	1490	1490	1490.16	1490	1490	1594.25
1192.28	294.412	1436	1542.01	1436	1436	1436.33	1436	1436	1542.34
1192.48	294.212	1470	1577.92	1470	1470	1470.68	1470	1470	1578.6
1192.68	294.012	1451	1554.51	1444.32	1444.32	1445.64	1444.32	1444.32	1555.83
1192.88	293.812	1433	1556.76	1444.29	1444.29	1446.79	1444.29	1444.29	1559.26
1193.08	293.612	1505	1558.81	1444.05	1444.05	1448.63	1444.05	1444.05	1563.39
1193.28	293.412	1524	1561.31	1443.92	1443.92	1452.03	1443.92	1443.92	1569.42
1193.48	293.212	1454	1563.89	1443.73	1443.73	1457.6	1443.73	1443.73	1577.76
1193.68	293.012	1549	1566.49	1443.55	1443.55	1466.48	1443.55	1443.55	1589.41
1193.88	292.812	1573	1569.16	1443.16	1443.16	1479.77	1443.16	1443.16	1605.77
1194.08	292.612	1566	1572.22	1442.79	1442.8	1499.25	1442.79	1442.79	1628.68
1194.28	292.412	1712	1574.9	1442.05	1442.06	1525.92	1442.05	1442.05	1658.78
1194.48	292.212	1734	1577.67	1441.22	1441.25	1561.03	1441.22	1441.22	1697.52
1194.68	292.012	1820	1580.86	1440.09	1440.18	1604.35	1440.09	1440.09	1745.2
1194.88	291.812	1736	1584.1	1439.02	1439.24	1654.56	1439.02	1439.02	1799.86
1195.08	291.612	1843	1587.2	1437.8	1438.3	1707.71	1437.8	1437.8	1857.61
1195.28	291.412	1910	1591.27	1436.36	1437.47	1757.77	1436.35	1436.35	1913.81
1195.48	291.212	2028	1595.16	1434.69	1437.04	1797.44	1434.67	1434.67	1960.31
1195.68	291.012	1945	1599.05	1433.03	1437.81	1820.11	1432.99	1432.99	1991.02
1195.88	290.812	1950	1604.31	1431.47	1440.77	1821.38	1431.37	1431.37	2003.81
1196.08	290.612	1953	1610.07	1429.94	1447.23	1800.62	1429.73	1429.73	1998.69
1196.28	290.412	1971	1615.74	1428.46	1459.19	1761.3	1427.98	1427.98	1980.76
1196.48	290.212	1976	1622.8	1427.36	1479.5	1710.03	1426.33	1426.33	1960.71
1196.68	290.012	1989	1631.29	1426.71	1510.88	1654	1424.58	1424.58	1949.14
1196.88	289.812	1946	1639.92	1427.23	1556.49	1599.87	1422.98	1422.98	1954.59
1197.08	289.612	2017	1649.24	1429.33	1616.92	1551.56	1421.1	1421.1	1983.75
1197.28	289.412	2053	1662.15	1434.57	1690.88	1511.48	1419.21	1419.21	2041.46
1197.48	289.212	2098	1674.93	1445.01	1771.85	1479.92	1417.2	1417.2	2120.13
1197.68	289.012	2234	1687.4	1463.57	1848.48	1455.93	1414.87	1414.87	2210.77
1197.88	288.812	2321	1707.16	1494.61	1906.13	1438.15	1412.21	1412.21	2309.43
1198.08	288.612	2407	1726.88	1543.91	1931.92	1425.07	1409.23	1409.23	2400.08
1198.28	288.412	2492	1746.32	1618.43	1918.32	1415.32	1405.98	1405.98	2480.45
1198.48	288.212	2573	1776.16	1725.59	1868.32	1407.71	1402.39	1402.39	2570.62
1198.68	288.012	2690	1809.83	1872.01	1792.53	1401.35	1398.41	1398.41	2680.49
1198.88	287.812	2857	1843.15	2061.64	1705.5	1395.65	1394.08	1394.08	2823.68
1199.08	287.612	3001	1882.67	2291.38	1620.36	1390.18	1389.38	1389.38	3016.46
1199.28	287.412	3267	1936.67	2549.01	1545.55	1384.22	1383.82	1383.82	3263.98
1199.48	287.212	3523	2003.38	2811.96	1484.69	1377.67	1377.47	1377.47	3545.28
1199.68	287.012	3804	2086.97	3047.87	1437.75	1370.26	1370.17	1370.17	3832.33
1199.88	286.812	4230	2193.38	3220.17	1402.34	1361.78	1361.74	1361.74	4092.47
1200.08	286.612	4296	2331.93	3297.16	1375.77	1352.54	1352.53	1352.53	4299.83
1200.28	286.412	4424	2516.32	3263.3	1355.9	1343.15	1343.16	1343.14	4449.27
1200.48	286.212	4541	2766.31	3123.55	1340.04	1333.36	1333.77	1333.36	4563.61
1200.68	286.012	4620	3113.24	2901.77	1326.62	1323.27	1328.18	1323.26	4700.02
1200.88	285.812	4916	3606.49	2632.22	1314.08	1312.47	1350.21	1312.47	4965.6
1201.08	285.612	5655	4330.52	2348.98	1300.19	1299.45	1482.9	1299.45	5564.24
1201.28	285.412	6757	5463.96	2080.07	1283.95	1283.63	1812.93	1283.63	6790.04
1201.48	285.212	8766	7463.38	1841.04	1262.32	1262.18	2058.68	1262.18	8838.88
1201.68	285.012	12611	11520.4	1634.47	1230.61	1230.55	1800.85	1230.55	12494.6
1201.88	284.812	20013	19682.2	1450.09	1178.97	1178.95	1388.79	1178.95	20163.2
1202.08	284.612	30973	31017.8	1270.76	1095.39	1095.38	1140.71	1095.38	31238.5
1202.28	284.412	35288	34833.1	1098.85	989.441	989.438	995.615	989.438	34948.7
1202.48	284.212	22899	23457.7	975.276	909.376	909.375	909.918	909.375	23524.2
1202.68	284.012	9896	9825.6	911.398	872.991	872.99	873.021	872.99	9864.04
1202.88	283.812	4019	3088.46	881.617	859.957	859.957	859.958	859.957	3110.12
1203.08	283.612	1898	1217.56	867.304	855.494	855.494	855.494	855.494	1229.37
1203.28	283.412	1073	893.618	860.614	854.388	854.388	854.388	854.388	899.844
1203.48	283.212	671	673.844	674.173	671	671	671	671	677.017
1203.68	283.012	489	489.139	490.563	489	489	489	489	490.702
1203.88	282.812	365	365.005	365.745	365	365	365	365	365.749
1204.08	282.612	361	361	361.345	361	361	361	361	361.345
1204.28	282.412	324	324	324.154	324	324	324	324	324.154
1204.48	282.212	315	315	315.067	315	315	315	315	315.067
1204.68	282.012	275	275	275.028	275	275	275	275	275.028
1204.88	281.812	242	242	242.011	242	242	242	242	242.011
1205.08	281.612	212	212	212.004	212	212	212	212	212.004
1205.28	281.412	238	238	238.002	238	238	238	238	238.002
1205.48	281.212	211	211	211.001	211	211	211	211	211.001
1205.68	281.012	182	182	182	182	182	182	182	182
1205.88	280.812	193	193	193	193	193	193	193	193
1206.08	280.612	175	175	175	175	175	175	175	175
1206.28	280.412	183	183	183	183	183	183	183	183
1206.48	280.212	197	197	197	197	197	197	197	197
1206.68	280.012	187	187	187	187	187	187	187	187
1206.88	279.812	187	187	187	187	187	187	187	187
1207.08	279.612	153	153	153	153	153	153	153	153
1207.28	279.412	167	167	167	167	167	167	167	167
1207.48	279.212	145	145	145	145	145	145	145	145
1207.68	279.012	147	147	147	147	147	147	147	147
1207.88	278.812	153	153	153	153	153	153	153	153
1208.08	278.612	157	157	157	157	157	157	157	157
1208.28	278.412	147	147	147	147	147	147	147	147
1208.48	278.212	181	181	181	181	181	181	181	181
1208.68	278.012	152	152	152	152	152	152	152	152
1208.88	277.812	167	167	167	167	167	167	167	167
1209.08	277.612	155	155	155	155	155	155	155	155