Folder: graphene-production/data/derived_data/xps/20171212_Gr-NH2

Note: data/derived_data/xps/20171212_Gr-NH2/20171212_C1s_comps.txt
Report Copied on: Wednesday, January 03, 2018, 10:37:41	
C:\Users\emilbp\PhD\Projects\graphene-production\data\raw_data\xps\20171212_Gr-NH2\20171130_Gr-NH2.vms	

Sample Identifier	C-C (sp3) CPSeV	C-O/C-N CPSeV	C=C (sp2) CPSeV	C=O CPSeV	p-p* (SUS) CPSeV	C-C (sp3) %	C-O/C-N %	C=C (sp2) %	C=O %	p-p* (SUS) %	
GrNH2 on nylon 2	411.405	3644.07	20269.4	853.999	731.615	1.58779	14.0641	78.2286	3.29596	2.82362	
GrNH2 on nylon 1	371.153	3807.53	17776.1	1617.85	1038.48	1.50807	15.4708	72.2279	6.57367	4.21955	
Exfoliated graphite 2	782.456	3594.25	16023.6	1109.41	354.953	3.57863	16.4386	73.2854	5.07398	1.62341	
Exfoliated graphite 1	263.353	2135.63	15901.3	919.827	446.343	1.3391	10.8593	80.8549	4.67715	2.26957

Note: data/derived_data/xps/20171212_Gr-NH2/20171212_survey_all.txt
Report Copied on: Wednesday, January 03, 2018, 10:35:27	
C:\Users\emilbp\PhD\Projects\graphene-production\data\raw_data\xps\20171212_Gr-NH2\20171130_Gr-NH2.vms	

Sample Identifier	C 1s CPSeV	F 1s CPSeV	N 1s CPSeV	O 1s CPSeV	S 2p CPSeV	C 1s %	F 1s %	N 1s %	O 1s %	S 2p %	
GrNH2 on nylon 2	34549.3	0	303.976	2907.84	0	91.4944	0	0.804997	7.70062	0	
GrNH2 on nylon 1	31589.5	0	538.322	2777.34	0	90.5009	0	1.54224	7.95682	0	
Exfoliated graphite 2	31480.2	73.0928	197.203	3901.65	166.431	87.8879	0.204064	0.550559	10.8928	0.464649	
Exfoliated graphite 1	26162.9	36.8131	237.809	3231.35	206.092	87.5747	0.123224	0.796016	10.8163	0.689849

File: 20171212_ExGr_C1s_deconvolution_1.txt
C:\Users\emilbp\PhD\Projects\graphene-production\data\raw_data\xps\20171212_Gr-NH2\20171130_Gr-NH2.vms
C 1s/18
	Characteristic Energy eV	1486.69	Acquisition Time s	1
KE_C 1s/18	BE_C 1s/18	CPS_C 1s/18	C=C (sp2)_1_C 1s/18	C-O/C-N_2_C 1s/18	C=O_3_C 1s/18	p-p* (SUS)_4_C 1s/18	C-C (sp3)_5_C 1s/18	Background_C 1s/18	Envelope_C 1s/18
1186.36	300.334	1137	1192.69	1137	1137	1137	1137	1137	1192.69
1186.56	300.134	1091	1147.2	1091	1091	1091	1091	1091	1147.2
1186.76	299.934	1092	1148.71	1092	1092	1092	1092	1092	1148.71
1186.96	299.734	1094	1151.26	1094	1094	1094	1094	1094	1151.26
1187.16	299.534	1076	1133.83	1076	1076	1076	1076	1076	1133.83
1187.36	299.334	1077	1135.4	1077	1077	1077	1077	1077	1135.4
1187.56	299.134	1086	1144.98	1086	1086	1086	1086	1086	1144.98
1187.76	298.934	1061	1120.63	1061	1061	1061	1061	1061	1120.63
1187.96	298.734	1040	1100.28	1040	1040	1040	1040	1040	1100.28
1188.16	298.534	1068	1128.93	1068	1068	1068	1068	1068	1128.93
1188.36	298.334	1044	1105.62	1044	1044	1044	1044	1044	1105.62
1188.56	298.134	970	1032.36	970	970	970	970	970	1032.36
1188.76	297.934	1039	1102.1	1039	1039	1039	1039	1039	1102.1
1188.96	297.734	1042	1105.84	1042	1042	1042	1042	1042	1105.84
1189.16	297.534	1001	1065.67	1001	1001	1001	1001	1001	1065.67
1189.36	297.334	982	1047.53	982	982	982	982	982	1047.53
1189.56	297.134	1018	1084.39	1018	1018	1018	1018	1018	1084.39
1189.76	296.934	1001	1068.26	1001	1001	1001	1001	1001	1068.26
1189.96	296.734	1076	1144.26	1076	1076	1076	1076	1076	1144.26
1190.16	296.534	990	1059.26	990	990	990	990	990	1059.26
1190.36	296.334	1039	1109.26	1039	1039	1039	1039	1039	1109.26
1190.56	296.134	1022	1093.34	1022	1022	1022	1022	1022	1093.34
1190.76	295.934	1043	1115.52	1043	1043	1043	1043	1043	1115.52
1190.96	295.734	1038	1111.7	1038	1038	1038	1038	1038	1111.7
1191.16	295.534	1083	1157.88	1083	1083	1083	1083	1083	1157.88
1191.36	295.334	1080	1156.23	1080	1080	1080	1080	1080	1156.24
1191.56	295.134	1080	1157.64	1080	1080	1080	1080	1080	1157.65
1191.76	294.934	1091	1170.05	1091	1091	1091.01	1091	1091	1170.06
1191.96	294.734	1162	1242.5	1162	1162	1162.02	1162	1162	1242.52
1192.16	294.534	1135	1217.21	1135	1135	1135.04	1135	1135	1217.25
1192.36	294.334	1191	1274.92	1191	1191	1191.1	1191	1191	1275.02
1192.56	294.134	1131	1216.63	1131	1131	1131.24	1131	1131	1216.86
1192.76	293.934	1205	1263.81	1176.29	1176.29	1176.81	1176.29	1176.29	1264.33
1192.96	293.734	1205	1265.85	1176.23	1176.23	1177.31	1176.23	1176.23	1266.94
1193.16	293.534	1177	1267.9	1176.16	1176.17	1178.36	1176.16	1176.16	1270.1
1193.36	293.334	1264	1269.81	1175.96	1175.97	1180.21	1175.96	1175.96	1274.06
1193.56	293.134	1217	1272.21	1175.83	1175.84	1183.68	1175.83	1175.83	1280.08
1193.76	292.934	1257	1274.69	1175.64	1175.67	1189.6	1175.64	1175.64	1288.67
1193.96	292.734	1311	1277.07	1175.36	1175.42	1199.11	1175.36	1175.36	1300.87
1194.16	292.534	1282	1279.57	1175.12	1175.25	1213.71	1175.12	1175.12	1318.3
1194.36	292.334	1372	1282.48	1174.59	1174.87	1234.5	1174.59	1174.59	1342.67
1194.56	292.134	1336	1285.39	1174.06	1174.64	1262.66	1174.06	1174.06	1374.56
1194.76	291.934	1462	1288.13	1173.37	1174.53	1297.68	1173.37	1173.37	1413.59
1194.96	291.734	1492	1291.23	1172.52	1174.74	1337.41	1172.52	1172.52	1458.34
1195.16	291.534	1480	1294.88	1171.6	1175.74	1377.45	1171.6	1171.6	1504.87
1195.36	291.334	1531	1298.39	1170.55	1178.01	1411.26	1170.55	1170.55	1546.56
1195.56	291.134	1554	1301.86	1169.45	1182.44	1432.16	1169.45	1169.45	1577.56
1195.76	290.934	1604	1306.55	1168.19	1190.07	1434.88	1168.19	1168.19	1595.12
1195.96	290.734	1576	1311.73	1167.07	1202.74	1418.93	1167.07	1167.07	1599.27
1196.16	290.534	1568	1316.94	1165.98	1222.09	1387.68	1165.98	1165.98	1594.76
1196.36	290.334	1604	1322.31	1164.69	1249.78	1347.13	1164.69	1164.69	1589.85
1196.56	290.134	1632	1330.14	1163.4	1287.62	1304.42	1163.4	1163.4	1595.38
1196.76	289.934	1584	1338.01	1162.17	1336.41	1265	1162.15	1162.15	1615.13
1196.96	289.734	1658	1345.77	1160.85	1395.18	1231.86	1160.8	1160.8	1651.25
1197.16	289.534	1742	1355.47	1159.31	1460.53	1205.88	1159.15	1159.15	1703.75
1197.36	289.334	1698	1367.83	1158.03	1526.71	1186.82	1157.52	1157.52	1766.82
1197.56	289.134	1839	1380.03	1157.24	1585.15	1173.27	1155.74	1155.74	1828.47
1197.76	288.934	1881	1392.07	1157.84	1626.67	1163.86	1153.8	1153.8	1879.05
1197.96	288.734	1878	1411.22	1161.93	1643.62	1157.18	1151.65	1151.65	1919.01
1198.16	288.534	1904	1432.17	1173.69	1632.52	1152.31	1149.4	1149.4	1942.49
1198.36	288.334	2003	1452.98	1200.68	1594.95	1148.49	1147.01	1147.01	1956.05
1198.56	288.134	1934	1474.9	1255.09	1537.45	1145.48	1144.76	1144.76	1978.63
1198.76	287.934	2079	1506.24	1353.31	1468.85	1142.6	1142.27	1142.27	2044.2
1198.96	287.734	2203	1543.78	1513.58	1397.96	1139.63	1139.49	1139.49	2176.5
1199.16	287.534	2420	1588.89	1747.34	1331.33	1136.09	1136.03	1136.03	2395.57
1199.36	287.334	2706	1643.8	2046.34	1273.09	1131.8	1131.78	1131.78	2699.69
1199.56	287.134	3081	1711.63	2367.65	1224.77	1126.64	1126.63	1126.63	3050.81
1199.76	286.934	3388	1796.75	2632.64	1186.04	1120.42	1120.45	1120.42	3374.63
1199.96	286.734	3516	1906.07	2756.05	1156.01	1113.7	1114.12	1113.7	3591.16
1200.16	286.534	3651	2048.85	2687.87	1132.83	1106.51	1110.22	1106.51	3660.25
1200.36	286.334	3654	2239.13	2453.73	1115.13	1099.32	1121.95	1099.32	3631.99
1200.56	286.134	3748	2497.22	2129.87	1101.16	1091.98	1187.33	1091.98	3639.63
1200.76	285.934	3849	2854.94	1803.17	1089.54	1084.39	1349.15	1084.39	3843.62
1200.96	285.734	4237	3366.35	1530.1	1078.57	1075.77	1517.93	1075.77	4265.62
1201.16	285.534	4750	4143.63	1329.67	1067.16	1065.69	1472.1	1065.69	4815.5
1201.36	285.334	5912	5454.74	1194.87	1053.63	1052.88	1261.96	1052.88	5806.55
1201.56	285.134	8010	7922.34	1105.76	1035.22	1034.85	1101.44	1034.85	8060.21
1201.76	284.934	12196	12574.1	1039.61	1006.8	1006.63	1020.86	1006.63	12621.4
1201.96	284.734	19395	19484.5	974.627	960.393	960.312	962.424	960.312	19501
1202.16	284.534	25341	24623.8	899.897	894.144	894.108	894.328	894.108	24629.8
1202.36	284.334	21153	21594.4	834.085	831.908	831.893	831.909	831.893	21596.6
1202.56	284.134	12365	12685.6	794.266	793.501	793.494	793.495	793.494	12686.3
1202.76	283.934	6143	5379.24	774.723	774.47	774.468	774.468	774.468	5379.5
1202.96	283.734	2589	2015.7	767.411	767.334	767.333	767.333	767.333	2015.78
1203.16	283.534	1226	1008.01	765.268	765.246	765.246	765.246	765.246	1008.03
1203.36	283.334	753	799.308	765.006	765	765	765	765	799.314
1203.56	283.134	501	504.544	501.002	501	501	501	501	504.545
1203.76	282.934	386	386.268	386	386	386	386	386	386.268
1203.96	282.734	358	358.015	358	358	358	358	358	358.015
1204.16	282.534	287	287.001	287	287	287	287	287	287.001
1204.36	282.334	257	257	257	257	257	257	257	257
1204.56	282.134	283	283	283	283	283	283	283	283
1204.76	281.934	244	244	244	244	244	244	244	244
1204.96	281.734	243	243	243	243	243	243	243	243
1205.16	281.534	234	234	234	234	234	234	234	234
1205.36	281.334	243	243	243	243	243	243	243	243
1205.56	281.134	221	221	221	221	221	221	221	221
1205.76	280.934	193	193	193	193	193	193	193	193
1205.96	280.734	189	189	189	189	189	189	189	189
1206.16	280.534	196	196	196	196	196	196	196	196
1206.36	280.334	203	203	203	203	203	203	203	203
1206.56	280.134	166	166	166	166	166	166	166	166
1206.76	279.934	194	194	194	194	194	194	194	194
1206.96	279.734	187	187	187	187	187	187	187	187
1207.16	279.534	196	196	196	196	196	196	196	196
1207.36	279.334	190	190	190	190	190	190	190	190
1207.56	279.134	189	189	189	189	189	189	189	189
1207.76	278.934	166	166	166	166	166	166	166	166
1207.96	278.734	151	151	151	151	151	151	151	151
1208.16	278.534	199	199	199	199	199	199	199	199
1208.36	278.334	172	172	172	172	172	172	172	172
1208.56	278.134	175	175	175	175	175	175	175	175
1208.76	277.934	181	181	181	181	181	181	181	181
1208.96	277.734	180	180	180	180	180	180	180	180
1209.16	277.534	179	179	179	179	179	179	179	179
1209.36	277.334	181	181	181	181	181	181	181	181
1209.56	277.134	139	139	139	139	139	139	139	139
1209.76	276.934	175	175	175	175	175	175	175	175
1209.96	276.734	157	157	157	157	157	157	157	157
1210.16	276.534	167	167	167	167	167	167	167	167
1210.36	276.334	194	194	194	194	194	194	194	194
1210.56	276.134	157	157	157	157	157	157	157	157
1210.76	275.934	167	167	167	167	167	167	167	167
1210.96	275.734	158	158	158	158	158	158	158	158
1211.16	275.534	173	173	173	173	173	173	173	173
1211.36	275.334	152	152	152	152	152	152	152	152
1211.56	275.134	179	179	179	179	179	179	179	179
1211.76	274.934	169	169	169	169	169	169	169	169
1211.96	274.734	151	151	151	151	151	151	151	151
1212.16	274.534	173	173	173	173	173	173	173	173
1212.36	274.334	158	158	158	158	158	158	158	158

File: 20171212_ExGr_C1s_deconvolution_2.txt
C:\Users\emilbp\PhD\Projects\graphene-production\data\raw_data\xps\20171212_Gr-NH2\20171130_Gr-NH2.vms
C 1s/13
	Characteristic Energy eV	1486.69	Acquisition Time s	1
KE_C 1s/13	BE_C 1s/13	CPS_C 1s/13	C=C (sp2)_1_C 1s/13	C-O/C-N_2_C 1s/13	C=O_3_C 1s/13	p-p* (SUS)_4_C 1s/13	C-C (sp3)_5_C 1s/13	Background_C 1s/13	Envelope_C 1s/13
1186.36	300.334	1201	1256.83	1201	1201	1201	1201	1201	1256.83
1186.56	300.134	1199	1255.33	1199	1199	1199	1199	1199	1255.33
1186.76	299.934	1231	1287.87	1231	1231	1231	1231	1231	1287.87
1186.96	299.734	1232	1289.43	1232	1232	1232	1232	1232	1289.43
1187.16	299.534	1123	1180.99	1123	1123	1123	1123	1123	1180.99
1187.36	299.334	1169	1227.56	1169	1169	1169	1169	1169	1227.56
1187.56	299.134	1116	1175.19	1116	1116	1116	1116	1116	1175.19
1187.76	298.934	1153	1212.82	1153	1153	1153	1153	1153	1212.82
1187.96	298.734	1141	1201.46	1141	1141	1141	1141	1141	1201.46
1188.16	298.534	1077	1138.13	1077	1077	1077	1077	1077	1138.13
1188.36	298.334	1145	1206.85	1145	1145	1145	1145	1145	1206.85
1188.56	298.134	1119	1181.58	1119	1119	1119	1119	1119	1181.58
1188.76	297.934	1073	1136.3	1073	1073	1073	1073	1073	1136.3
1188.96	297.734	1105	1169.1	1105	1105	1105	1105	1105	1169.1
1189.16	297.534	1094	1158.94	1094	1094	1094	1094	1094	1158.94
1189.36	297.334	1072	1137.78	1072	1072	1072	1072	1072	1137.78
1189.56	297.134	1069	1135.62	1069	1069	1069	1069	1069	1135.62
1189.76	296.934	1051	1118.59	1051	1051	1051	1051	1051	1118.59
1189.96	296.734	1039	1107.57	1039	1039	1039	1039	1039	1107.57
1190.16	296.534	1089	1158.54	1089	1089	1089	1089	1089	1158.54
1190.36	296.334	1127	1197.56	1127	1127	1127	1127	1127	1197.56
1190.56	296.134	1106	1177.72	1106	1106	1106	1106	1106	1177.72
1190.76	295.934	1085	1157.87	1085	1085	1085	1085	1085	1157.87
1190.96	295.734	1115	1189.02	1115	1115	1115	1115	1115	1189.02
1191.16	295.534	1163	1238.29	1163	1163	1163	1163	1163	1238.29
1191.36	295.334	1129	1205.67	1129	1129	1129	1129	1129	1205.67
1191.56	295.134	1124	1202.05	1124	1124	1124	1124	1124	1202.05
1191.76	294.934	1215	1294.42	1215	1215	1215	1215	1215	1294.42
1191.96	294.734	1170	1251.03	1170	1170	1170	1170	1170	1251.03
1192.16	294.534	1228	1310.71	1228	1228	1228	1228	1228	1310.71
1192.36	294.334	1297	1381.38	1297	1297	1297.01	1297	1297	1381.39
1192.56	294.134	1198	1284.07	1198	1198	1198.04	1198	1198	1284.11
1192.76	293.934	1274	1336.1	1247.96	1247.96	1248.06	1247.96	1247.96	1336.2
1192.96	293.734	1263	1338.11	1247.91	1247.91	1248.18	1247.91	1247.91	1338.39
1193.16	293.534	1271	1340.1	1247.83	1247.84	1248.51	1247.83	1247.83	1340.79
1193.36	293.334	1301	1342.23	1247.72	1247.74	1249.33	1247.72	1247.72	1343.86
1193.56	293.134	1265	1344.8	1247.69	1247.73	1251.27	1247.69	1247.69	1348.43
1193.76	292.934	1365	1347.16	1247.45	1247.54	1254.96	1247.45	1247.45	1354.77
1193.96	292.734	1302	1349.57	1247.25	1247.45	1262.1	1247.25	1247.25	1364.61
1194.16	292.534	1389	1352.33	1246.94	1247.36	1274.51	1246.94	1246.94	1380.31
1194.36	292.334	1398	1355.21	1246.46	1247.3	1294.42	1246.46	1246.46	1404.01
1194.56	292.134	1459	1358.01	1245.9	1247.56	1323.82	1245.9	1245.9	1437.59
1194.76	291.934	1495	1360.58	1245.12	1248.29	1362.73	1245.12	1245.12	1481.37
1194.96	291.734	1571	1364.04	1244.22	1250.07	1408.09	1244.22	1244.22	1533.78
1195.16	291.534	1559	1367.57	1243.28	1253.74	1452.43	1243.28	1243.28	1587.19
1195.36	291.334	1602	1370.93	1242.17	1260.24	1484.73	1242.17	1242.17	1631.57
1195.56	291.134	1622	1374.47	1240.92	1271.08	1495.09	1240.92	1240.92	1658.79
1195.76	290.934	1655	1379.33	1239.62	1288.32	1479.83	1239.62	1239.62	1668.24
1195.96	290.734	1662	1384.25	1238.38	1314.26	1443.63	1238.37	1238.37	1665.39
1196.16	290.534	1674	1389.09	1237.06	1350.98	1396.55	1237.04	1237.04	1662.55
1196.36	290.334	1638	1395.17	1235.72	1400.3	1349.28	1235.68	1235.68	1673.43
1196.56	290.134	1689	1402.72	1234.43	1462.73	1309.01	1234.31	1234.31	1705.96
1196.76	289.934	1739	1410.11	1233.12	1536.44	1278.47	1232.79	1232.79	1759.76
1196.96	289.734	1865	1417.19	1231.79	1616.52	1257.06	1230.95	1230.95	1829.7
1197.16	289.534	1860	1427.64	1231.02	1694.96	1242.94	1228.95	1228.95	1909.71
1197.36	289.334	1935	1439.23	1231.69	1761.18	1233.91	1226.86	1226.86	1985.43
1197.56	289.134	2048	1450.38	1235.14	1803.98	1227.68	1224.34	1224.34	2044.17
1197.76	288.934	2109	1461.64	1244.69	1815.57	1223.2	1221.71	1221.71	2079.97
1197.96	288.734	2076	1481.7	1265.5	1793.34	1219.7	1219.08	1219.08	2103.01
1198.16	288.534	2111	1501.71	1305.78	1740.91	1216.66	1216.41	1216.41	2115.83
1198.36	288.334	2131	1521.64	1377.17	1666.91	1213.74	1213.65	1213.65	2138.52
1198.56	288.134	2193	1543.62	1494.2	1582.46	1210.61	1210.57	1210.57	2199.16
1198.76	287.934	2307	1574.42	1673.38	1497.98	1207.37	1207.36	1207.36	2331.09
1198.96	287.734	2540	1611.05	1927.1	1420.5	1203.47	1203.47	1203.47	2551.71
1199.16	287.534	2841	1655.03	2254.92	1354.03	1198.73	1198.73	1198.73	2866.52
1199.36	287.334	3238	1708.38	2635.57	1299.56	1192.81	1192.81	1192.81	3257.88
1199.56	287.134	3677	1774.14	3019.12	1256.23	1185.58	1185.58	1185.58	3678.34
1199.76	286.934	4057	1856.74	3331.84	1222.13	1177	1177.05	1177	4056.75
1199.96	286.734	4368	1962.97	3498.89	1195.48	1167.66	1168.12	1167.66	4322.48
1200.16	286.534	4390	2102.11	3471	1174.4	1157.84	1161.05	1157.84	4435.05
1200.36	286.334	4386	2287.69	3255.14	1157.46	1147.93	1165.5	1147.93	4422
1200.56	286.134	4314	2539.83	2906.28	1143.45	1138.15	1212.5	1138.15	4387.62
1200.76	285.934	4643	2888.65	2501.1	1130.82	1127.97	1369.88	1127.97	4506.53
1200.96	285.734	4955	3385.72	2109.97	1118.15	1116.66	1702.49	1116.66	4966.34
1201.16	285.534	5762	4136.33	1776.08	1103.91	1103.16	2105.65	1103.16	5812.49
1201.36	285.334	6913	5391.85	1515.43	1086.82	1086.46	2225.71	1086.46	6960.44
1201.56	285.134	8966	7730.04	1323.1	1064.59	1064.42	1906.89	1064.42	8831.36
1201.76	284.934	12735	12122.4	1179.95	1032.35	1032.27	1455.89	1032.27	12693.8
1201.96	284.734	18589	18786.6	1063.81	983.937	983.903	1138.08	983.903	19020.7
1202.16	284.534	24644	24254.6	956.646	915.423	915.408	957.888	915.408	24338.3
1202.36	284.334	22117	22219.4	867.322	847.114	847.108	856.119	847.108	22248.6
1202.56	284.134	13525	13754.3	811.115	801.71	801.707	803.202	801.707	13765.2
1202.76	283.934	6308	6119.42	784.402	780.222	780.221	780.413	780.221	6123.8
1202.96	283.734	2648	2323.86	774.083	772.314	772.314	772.333	772.314	2325.65
1203.16	283.534	1307	1095.87	770.726	770.017	770.016	770.018	770.016	1096.58
1203.36	283.334	746	819.743	769.938	769.667	769.667	769.667	769.667	820.015
1203.56	283.134	514	519.659	514.099	514	514	514	514	519.758
1203.76	282.934	420	420.475	420.034	420	420	420	420	420.51
1203.96	282.734	363	363.03	363.011	363	363	363	363	363.041
1204.16	282.534	329	329.001	329.004	329	329	329	329	329.005
1204.36	282.334	268	268	268.001	268	268	268	268	268.001
1204.56	282.134	273	273	273	273	273	273	273	273
1204.76	281.934	218	218	218	218	218	218	218	218
1204.96	281.734	238	238	238	238	238	238	238	238
1205.16	281.534	231	231	231	231	231	231	231	231
1205.36	281.334	220	220	220	220	220	220	220	220
1205.56	281.134	206	206	206	206	206	206	206	206
1205.76	280.934	224	224	224	224	224	224	224	224
1205.96	280.734	196	196	196	196	196	196	196	196
1206.16	280.534	181	181	181	181	181	181	181	181
1206.36	280.334	189	189	189	189	189	189	189	189
1206.56	280.134	186	186	186	186	186	186	186	186
1206.76	279.934	196	196	196	196	196	196	196	196
1206.96	279.734	170	170	170	170	170	170	170	170
1207.16	279.534	165	165	165	165	165	165	165	165
1207.36	279.334	181	181	181	181	181	181	181	181
1207.56	279.134	176	176	176	176	176	176	176	176
1207.76	278.934	178	178	178	178	178	178	178	178
1207.96	278.734	196	196	196	196	196	196	196	196
1208.16	278.534	171	171	171	171	171	171	171	171
1208.36	278.334	185	185	185	185	185	185	185	185
1208.56	278.134	175	175	175	175	175	175	175	175
1208.76	277.934	148	148	148	148	148	148	148	148
1208.96	277.734	167	167	167	167	167	167	167	167
1209.16	277.534	153	153	153	153	153	153	153	153
1209.36	277.334	165	165	165	165	165	165	165	165
1209.56	277.134	161	161	161	161	161	161	161	161
1209.76	276.934	185	185	185	185	185	185	185	185
1209.96	276.734	181	181	181	181	181	181	181	181
1210.16	276.534	168	168	168	168	168	168	168	168
1210.36	276.334	179	179	179	179	179	179	179	179
1210.56	276.134	160	160	160	160	160	160	160	160
1210.76	275.934	152	152	152	152	152	152	152	152
1210.96	275.734	141	141	141	141	141	141	141	141
1211.16	275.534	167	167	167	167	167	167	167	167
1211.36	275.334	147	147	147	147	147	147	147	147
1211.56	275.134	158	158	158	158	158	158	158	158
1211.76	274.934	170	170	170	170	170	170	170	170
1211.96	274.734	158	158	158	158	158	158	158	158
1212.16	274.534	162	162	162	162	162	162	162	162
1212.36	274.334	154	154	154	154	154	154	154	154

File: 20171212_ExGr_N1s_1.txt
C:\Users\emilbp\PhD\Projects\graphene-production\data\raw_data\xps\20171212_Gr-NH2\20171130_Gr-NH2.vms
N 1s/19
	Characteristic Energy eV	1486.69	Acquisition Time s	1.194
KE_N 1s/19	BE_N 1s/19	CPS_N 1s/19	Background_N 1s/19
1076.36	410.334	1787.27	1787.27
1076.46	410.234	1701.01	1701.01
1076.56	410.134	1681.74	1681.74
1076.66	410.034	1716.08	1716.08
1076.76	409.934	1722.78	1722.78
1076.86	409.834	1718.59	1718.59
1076.96	409.734	1731.99	1731.99
1077.06	409.634	1716.92	1716.92
1077.16	409.534	1740.37	1740.37
1077.26	409.434	1720.27	1720.27
1077.36	409.334	1739.53	1739.53
1077.46	409.234	1747.07	1747.07
1077.56	409.134	1736.18	1736.18
1077.66	409.034	1699.33	1699.33
1077.76	408.934	1715.24	1715.24
1077.86	408.834	1716.92	1716.92
1077.96	408.734	1690.95	1690.95
1078.06	408.634	1716.08	1716.08
1078.16	408.534	1709.38	1709.38
1078.26	408.434	1712.73	1712.73
1078.36	408.334	1749.58	1749.58
1078.46	408.234	1699.33	1699.33
1078.56	408.134	1742.88	1742.88
1078.66	408.034	1750.42	1750.42
1078.76	407.934	1749.58	1749.58
1078.86	407.834	1735.34	1735.34
1078.96	407.734	1742.88	1742.88
1079.06	407.634	1791.46	1791.46
1079.16	407.534	1776.38	1776.38
1079.26	407.434	1673.37	1673.37
1079.36	407.334	1704.36	1704.36
1079.46	407.234	1721.11	1721.11
1079.56	407.134	1819.93	1819.93
1079.66	407.034	1819.93	1819.93
1079.76	406.934	1743.72	1743.72
1079.86	406.834	1735.34	1735.34
1079.96	406.734	1717.76	1717.76
1080.06	406.634	1665.83	1665.83
1080.16	406.534	1735.34	1735.34
1080.26	406.434	1758.79	1758.79
1080.36	406.334	1807.37	1807.37
1080.46	406.234	1744.56	1744.56
1080.56	406.134	1712.73	1712.73
1080.66	406.034	1713.57	1713.57
1080.76	405.934	1701.01	1701.01
1080.86	405.834	1786.43	1786.43
1080.96	405.734	1788.11	1788.11
1081.06	405.634	1735.34	1735.34
1081.16	405.534	1732.83	1732.83
1081.26	405.434	1737.86	1737.86
1081.36	405.334	1750.42	1750.42
1081.46	405.234	1737.86	1737.86
1081.56	405.134	1778.89	1778.89
1081.66	405.034	1736.18	1736.18
1081.76	404.934	1758.79	1758.79
1081.86	404.834	1786.43	1786.43
1081.96	404.734	1767.17	1767.17
1082.06	404.634	1741.21	1741.21
1082.16	404.534	1729.48	1729.48
1082.26	404.434	1752.09	1752.09
1082.36	404.334	1747.91	1747.91
1082.46	404.234	1722.78	1722.78
1082.56	404.134	1716.08	1716.08
1082.66	404.034	1772.19	1772.19
1082.76	403.934	1743.72	1743.72
1082.86	403.834	1703.52	1703.52
1082.96	403.734	1750.42	1750.42
1083.06	403.634	1747.91	1747.91
1083.16	403.534	1769.68	1769.68
1083.26	403.434	1732.83	1732.83
1083.36	403.334	1754.61	1754.61
1083.46	403.234	1726.97	1726.97
1083.56	403.134	1712.73	1712.73
1083.66	403.034	1756.28	1756.28
1083.76	402.934	1762.14	1762.14
1083.86	402.834	1791.46	1791.46
1083.96	402.734	1789.78	1789.78
1084.06	402.634	1816.58	1816.58
1084.16	402.534	1792.29	1792.29
1084.26	402.434	1792.29	1792.29
1084.36	402.334	1802.35	1802.35
1084.46	402.234	1819.1	1819.1
1084.56	402.134	1873.53	1873.53
1084.66	402.034	1840.87	1840.87
1084.76	401.934	1897.82	1897.82
1084.86	401.834	1946.4	1946.4
1084.96	401.734	1901.17	1901.17
1085.06	401.634	1915.41	1915.41
1085.16	401.534	1860.13	1860.13
1085.26	401.434	1919.6	1919.6
1085.36	401.334	1888.61	1888.61
1085.46	401.234	1871.02	1871.02
1085.56	401.134	1922.11	1922.11
1085.66	401.034	1868.51	1868.51
1085.76	400.934	1852.6	1852.6
1085.86	400.834	1916.25	1916.25
1085.96	400.734	1850.92	1850.92
1086.06	400.634	1867.67	1867.67
1086.16	400.534	1881.91	1881.91
1086.26	400.434	1860.97	1860.97
1086.36	400.334	1807.37	1807.37
1086.46	400.234	1786.43	1786.43
1086.56	400.134	1835.85	1835.85
1086.66	400.034	1792.29	1792.29
1086.76	399.934	1833.33	1833.33
1086.86	399.834	1848.41	1848.41
1086.96	399.734	1830.82	1830.82
1087.06	399.634	1794.81	1794.81
1087.16	399.534	1826.63	1826.63
1087.26	399.434	1804.02	1804.02
1087.36	399.334	1835.01	1835.01
1087.46	399.234	1787.27	1787.27
1087.56	399.134	1838.36	1838.36
1087.66	399.034	1842.55	1842.55
1087.76	398.934	1820.77	1820.77
1087.86	398.834	1793.13	1793.13
1087.96	398.734	1773.03	1773.03
1088.06	398.634	1798.99	1798.99
1088.16	398.534	1786.43	1786.43
1088.26	398.434	1721.11	1721.11
1088.36	398.334	1727.81	1727.81
1088.46	398.234	1796.48	1796.48
1088.56	398.134	1722.78	1722.78
1088.66	398.034	1704.36	1704.36
1088.76	397.934	1675.88	1675.88
1088.86	397.834	1748.74	1748.74
1088.96	397.734	1756.28	1756.28
1089.06	397.634	1738.69	1738.69
1089.16	397.534	1754.61	1754.61
1089.26	397.434	1764.66	1764.66
1089.36	397.334	1688.44	1688.44
1089.46	397.234	1690.95	1690.95
1089.56	397.134	1748.74	1748.74
1089.66	397.034	1763.82	1763.82
1089.76	396.934	1734.51	1734.51
1089.86	396.834	1745.39	1745.39
1089.96	396.734	1722.78	1722.78
1090.06	396.634	1774.71	1774.71
1090.16	396.534	1771.36	1771.36
1090.26	396.434	1721.94	1721.94
1090.36	396.334	1771.36	1771.36
1090.46	396.234	1737.02	1737.02
1090.56	396.134	1699.33	1699.33
1090.66	396.034	1735.34	1735.34
1090.76	395.934	1705.19	1705.19
1090.86	395.834	1735.34	1735.34
1090.96	395.734	1706.87	1706.87
1091.06	395.634	1736.18	1736.18
1091.16	395.534	1723.62	1723.62
1091.26	395.434	1786.43	1786.43
1091.36	395.334	1789.78	1789.78
1091.46	395.234	1713.57	1713.57
1091.56	395.134	1719.43	1719.43
1091.66	395.034	1751.26	1751.26
1091.76	394.934	1708.54	1708.54
1091.86	394.834	1701.01	1701.01
1091.96	394.734	1732.83	1732.83
1092.06	394.634	1737.02	1737.02
1092.16	394.534	1730.32	1730.32
1092.26	394.434	1714.41	1714.41
1092.36	394.334	1740.37	1740.37
1092.46	394.234	1697.65	1697.65
1092.56	394.134	1718.59	1718.59
1092.66	394.034	1757.12	1757.12
1092.76	393.934	1742.88	1742.88
1092.86	393.834	1685.09	1685.09
1092.96	393.734	1779.73	1779.73
1093.06	393.634	1722.78	1722.78
1093.16	393.534	1712.73	1712.73
1093.26	393.434	1742.04	1742.04
1093.36	393.334	1737.02	1737.02
1093.46	393.234	1776.38	1776.38
1093.56	393.134	1770.52	1770.52
1093.66	393.034	1769.68	1769.68
1093.76	392.934	1791.46	1791.46
1093.86	392.834	1716.92	1716.92
1093.96	392.734	1731.16	1731.16
1094.06	392.634	1734.51	1734.51
1094.16	392.534	1746.23	1746.23
1094.26	392.434	1754.61	1754.61
1094.36	392.334	1752.93	1752.93
1094.46	392.234	1787.27	1787.27
1094.56	392.134	1756.28	1756.28
1094.66	392.034	1729.48	1729.48
1094.76	391.934	1735.34	1735.34
1094.86	391.834	1762.14	1762.14
1094.96	391.734	1734.51	1734.51
1095.06	391.634	1750.42	1750.42
1095.16	391.534	1731.99	1731.99
1095.26	391.434	1764.66	1764.66
1095.36	391.334	1793.13	1793.13
1095.46	391.234	1734.51	1734.51
1095.56	391.134	1759.63	1759.63
1095.66	391.034	1768.01	1768.01
1095.76	390.934	1726.97	1726.97
1095.86	390.834	1742.88	1742.88
1095.96	390.734	1759.63	1759.63
1096.06	390.634	1723.62	1723.62
1096.16	390.534	1778.89	1778.89
1096.26	390.434	1722.78	1722.78
1096.36	390.334	1773.87	1773.87
1096.46	390.234	1854.27	1854.27