Folder: graphene-production/data/derived_data/xps/20170920_Gr-NH2_for_Radisurf

Note: data/derived_data/xps/20170920_Gr-NH2_for_Radisurf/20170920_xps_ratios.txt
C:\Users\emilbp\PhD\Projects\graphene-production\data\derived_data\xps\20170920_Gr-NH2_for_Radisurf\GrNH2.vms	

Etch Time	C 1s CPSeV	Cl 2p CPSeV	N 1s CPSeV	O 1s CPSeV	S 2p CPSeV	Si 2p CPSeV	C 1s %	Cl 2p %	N 1s %	O 1s %	S 2p %	Si 2p %	
0	105750	239.721	1068.99	23445	422.954	976.775	80.1723	0.18174	0.810435	17.7744	0.320654	0.740523	
0	96898.6	172.449	983.744	24049.2	475.67	1006.13	78.406	0.139538	0.796002	19.4595	0.384891	0.814115

File: 20170920_xps_survey1.txt
C:\Users\emilbp\PhD\Projects\graphene-production\data\derived_data\xps\20170920_Gr-NH2_for_Radisurf\GrNH2.vms
Survey/2
	Characteristic Energy eV	1486.69	Acquisition Time s	0.2
KE_Survey/2	BE_Survey/2	CPS_Survey/2	Background_Survey/2
136.706	1349.98	51190	51190
141.706	1344.98	51010	51010
146.706	1339.98	50960	50960
151.706	1334.98	51195	51195
156.706	1329.98	50755	50755
161.706	1324.98	50225	50225
166.706	1319.98	51445	51445
171.706	1314.98	50780	50780
176.706	1309.98	51645	51645
181.706	1304.98	54135	54135
186.706	1299.98	53355	53355
191.706	1294.98	53515	53515
196.706	1289.98	54255	54255
201.706	1284.98	54425	54425
206.706	1279.98	54355	54355
211.706	1274.98	56080	56080
216.706	1269.98	56210	56210
221.706	1264.98	57740	57740
226.706	1259.98	58135	58135
231.706	1254.98	59160	59160
236.706	1249.98	60040	60040
241.706	1244.98	61990	61990
246.706	1239.98	62430	62430
251.706	1234.98	62645	62645
256.706	1229.98	67100	67100
261.706	1224.98	69075	69075
266.706	1219.98	64430	64430
271.706	1214.98	57975	57975
276.706	1209.98	47820	47820
281.706	1204.98	42220	42220
286.706	1199.98	41195	41195
291.706	1194.98	41300	41300
296.706	1189.98	41250	41250
301.706	1184.98	41825	41825
306.706	1179.98	41915	41915
311.706	1174.98	43020	43020
316.706	1169.98	42770	42770
321.706	1164.98	44090	44090
326.706	1159.98	43220	43220
331.706	1154.98	44020	44020
336.706	1149.98	44660	44660
341.706	1144.98	44475	44475
346.706	1139.98	45300	45300
351.706	1134.98	45445	45445
356.706	1129.98	46215	46215
361.706	1124.98	46365	46365
366.706	1119.98	46570	46570
371.706	1114.98	48175	48175
376.706	1109.98	47720	47720
381.706	1104.98	48885	48885
386.706	1099.98	48290	48290
391.706	1094.98	48175	48175
396.706	1089.98	49290	49290
401.706	1084.98	49065	49065
406.706	1079.98	49635	49635
411.706	1074.98	50245	50245
416.706	1069.98	50895	50895
421.706	1064.98	51475	51475
426.706	1059.98	51870	51870
431.706	1054.98	52580	52580
436.706	1049.98	52240	52240
441.706	1044.98	54000	54000
446.706	1039.98	53605	53605
451.706	1034.98	54235	54235
456.706	1029.98	54985	54985
461.706	1024.98	55745	55745
466.706	1019.98	55955	55955
471.706	1014.98	57110	57110
476.706	1009.98	57335	57335
481.706	1004.98	60255	60255
486.706	999.984	62305	62305
491.706	994.984	60310	60310
496.706	989.984	56435	56435
501.706	984.984	56940	56940
506.706	979.984	64220	64220
511.706	974.984	66760	66760
516.706	969.984	56920	56920
521.706	964.984	43675	43675
526.706	959.984	40510	40510
531.706	954.984	40395	40395
536.706	949.984	40005	40005
541.706	944.984	40615	40615
546.706	939.984	39735	39735
551.706	934.984	41155	41155
556.706	929.984	41070	41070
561.706	924.984	41305	41305
566.706	919.984	42525	42525
571.706	914.984	41875	41875
576.706	909.984	42080	42080
581.706	904.984	41975	41975
586.706	899.984	42620	42620
591.706	894.984	43420	43420
596.706	889.984	43340	43340
601.706	884.984	43570	43570
606.706	879.984	43870	43870
611.706	874.984	43870	43870
616.706	869.984	43830	43830
621.706	864.984	45210	45210
626.706	859.984	45045	45045
631.706	854.984	44700	44700
636.706	849.984	44590	44590
641.706	844.984	44855	44855
646.706	839.984	46205	46205
651.706	834.984	46070	46070
656.706	829.984	45670	45670
661.706	824.984	46645	46645
666.706	819.984	46450	46450
671.706	814.984	46815	46815
676.706	809.984	47165	47165
681.706	804.984	47180	47180
686.706	799.984	47345	47345
691.706	794.984	48095	48095
696.706	789.984	48455	48455
701.706	784.984	47780	47780
706.706	779.984	48590	48590
711.706	774.984	48660	48660
716.706	769.984	49265	49265
721.706	764.984	49030	49030
726.706	759.984	49435	49435
731.706	754.984	50255	50255
736.706	749.984	50315	50315
741.706	744.984	50080	50080
746.706	739.984	51170	51170
751.706	734.984	50075	50075
756.706	729.984	50660	50660
761.706	724.984	50730	50730
766.706	719.984	52150	52150
771.706	714.984	52900	52900
776.706	709.984	52120	52120
781.706	704.984	51985	51985
786.706	699.984	52310	52310
791.706	694.984	52680	52680
796.706	689.984	52815	52815
801.706	684.984	53270	53270
806.706	679.984	53270	53270
811.706	674.984	54210	54210
816.706	669.984	54365	54365
821.706	664.984	53555	53555
826.706	659.984	55495	55495
831.706	654.984	55310	55310
836.706	649.984	55460	55460
841.706	644.984	55375	55375
846.706	639.984	55670	55670
851.706	634.984	55555	55555
856.706	629.984	56450	56450
861.706	624.984	58140	58140
866.706	619.984	56930	56930
871.706	614.984	58260	58260
876.706	609.984	58480	58480
881.706	604.984	58560	58560
886.706	599.984	58680	58680
891.706	594.984	58795	58795
896.706	589.984	58780	58780
901.706	584.984	59580	59580
906.706	579.984	59875	59875
911.706	574.984	59910	59910
916.706	569.984	59965	59965
921.706	564.984	60835	60835
926.706	559.984	62405	62405
931.706	554.984	64110	64110
936.706	549.984	58590	58590
941.706	544.984	52720	52720
946.706	539.984	47905	47905
951.706	534.984	69720	47436.4
956.706	529.984	67940	40137.5
961.706	524.984	39300	39300
966.706	519.984	38375	38375
971.706	514.984	38850	38850
976.706	509.984	38635	38635
981.706	504.984	38990	38990
986.706	499.984	39090	39090
991.706	494.984	40185	40185
996.706	489.984	38655	38655
1001.71	484.984	39455	39455
1006.71	479.984	39700	39700
1011.71	474.984	40450	40450
1016.71	469.984	39885	39885
1021.71	464.984	40730	40730
1026.71	459.984	41090	41090
1031.71	454.984	41250	41250
1036.71	449.984	41650	41650
1041.71	444.984	41325	41325
1046.71	439.984	42965	42965
1051.71	434.984	41780	41780
1056.71	429.984	41625	41625
1061.71	424.984	43120	43120
1066.71	419.984	43130	43130
1071.71	414.984	43220	43220
1076.71	409.984	42910	42910
1081.71	404.984	43725	43725
1086.71	399.984	47140	43708.7
1091.71	394.984	43820	43820
1096.71	389.984	43805	43805
1101.71	384.984	44345	44345
1106.71	379.984	44360	44360
1111.71	374.984	44550	44550
1116.71	369.984	44645	44645
1121.71	364.984	45495	45495
1126.71	359.984	45585	45585
1131.71	354.984	47060	47060
1136.71	349.984	47910	47910
1141.71	344.984	47700	47700
1146.71	339.984	47245	47245
1151.71	334.984	46130	46130
1156.71	329.984	46505	46505
1161.71	324.984	48110	48110
1166.71	319.984	49565	49565
1171.71	314.984	52340	52340
1176.71	309.984	51575	51575
1181.71	304.984	43020	43020
1186.71	299.984	31720	31720
1191.71	294.984	25740	25740
1196.71	289.984	40740	25104.7
1201.71	284.984	200705	14716.3
1206.71	279.984	6845	6575
1211.71	274.984	4735	4735
1216.71	269.984	4980	4980
1221.71	264.984	4650	4650
1226.71	259.984	4575	4575
1231.71	254.984	4310	4310
1236.71	249.984	4300	4300
1241.71	244.984	4265	4265
1246.71	239.984	4200	4200
1251.71	234.984	4545	4545
1256.71	229.984	4840	4840
1261.71	224.984	4475	4475
1266.71	219.984	4255	4255
1271.71	214.984	4265	4265
1276.71	209.984	3930	3930
1281.71	204.984	4385	4385
1286.71	199.984	5420	4068.59
1291.71	194.984	4025	4025
1296.71	189.984	3980	3980
1301.71	184.984	4265	4265
1306.71	179.984	4000	4000
1311.71	174.984	3830	3830
1316.71	169.984	5115	4036.52
1321.71	164.984	3880	3880
1326.71	159.984	3990	3990
1331.71	154.984	5435	5435
1336.71	149.984	4130	4130
1341.71	144.984	3765	3765
1346.71	139.984	3710	3710
1351.71	134.984	3520	3520
1356.71	129.984	3635	3635
1361.71	124.984	3805	3805
1366.71	119.984	3630	3630
1371.71	114.984	3675	3675
1376.71	109.984	3685	3685
1381.71	104.984	4800	3674.16
1386.71	99.984	4075	3610.42
1391.71	94.984	3870	3870
1396.71	89.984	3830	3830
1401.71	84.984	3525	3525
1406.71	79.984	3685	3685
1411.71	74.984	3405	3405
1416.71	69.984	3770	3770
1421.71	64.984	3650	3650
1426.71	59.984	3810	3810
1431.71	54.984	3875	3875
1436.71	49.984	3915	3915
1441.71	44.984	3855	3855
1446.71	39.984	3565	3565
1451.71	34.984	3320	3320
1456.71	29.984	4235	4235
1461.71	24.984	5935	5935
1466.71	19.984	4320	4320
1471.71	14.984	4050	4050
1476.71	9.984	3055	3055
1481.71	4.984	1760	1760
1486.71	-0.016	165	165

File: 20170920_xps_survey2.txt
C:\Users\emilbp\PhD\Projects\graphene-production\data\derived_data\xps\20170920_Gr-NH2_for_Radisurf\GrNH2.vms
Survey/5
	Characteristic Energy eV	1486.69	Acquisition Time s	0.2
KE_Survey/5	BE_Survey/5	CPS_Survey/5	Background_Survey/5
136.68	1350.01	59040	59040
141.68	1345.01	59935	59935
146.68	1340.01	59375	59375
151.68	1335.01	58730	58730
156.68	1330.01	59320	59320
161.68	1325.01	59535	59535
166.68	1320.01	60305	60305
171.68	1315.01	59930	59930
176.68	1310.01	59545	59545
181.68	1305.01	63275	63275
186.68	1300.01	62005	62005
191.68	1295.01	61590	61590
196.68	1290.01	62365	62365
201.68	1285.01	63880	63880
206.68	1280.01	64180	64180
211.68	1275.01	64240	64240
216.68	1270.01	65670	65670
221.68	1265.01	66530	66530
226.68	1260.01	67105	67105
231.68	1255.01	68320	68320
236.68	1250.01	70010	70010
241.68	1245.01	73140	73140
246.68	1240.01	72540	72540
251.68	1235.01	72720	72720
256.68	1230.01	78655	78655
261.68	1225.01	79880	79880
266.68	1220.01	76605	76605
271.68	1215.01	68510	68510
276.68	1210.01	61505	61505
281.68	1205.01	55975	55975
286.68	1200.01	55225	55225
291.68	1195.01	57005	57005
296.68	1190.01	55910	55910
301.68	1185.01	57180	57180
306.68	1180.01	58390	58390
311.68	1175.01	56970	56970
316.68	1170.01	58400	58400
321.68	1165.01	58980	58980
326.68	1160.01	58590	58590
331.68	1155.01	60445	60445
336.68	1150.01	60405	60405
341.68	1145.01	61295	61295
346.68	1140.01	62035	62035
351.68	1135.01	62845	62845
356.68	1130.01	63465	63465
361.68	1125.01	64215	64215
366.68	1120.01	64670	64670
371.68	1115.01	65130	65130
376.68	1110.01	66755	66755
381.68	1105.01	67845	67845
386.68	1100.01	67640	67640
391.68	1095.01	68235	68235
396.68	1090.01	68880	68880
401.68	1085.01	68765	68765
406.68	1080.01	69760	69760
411.68	1075.01	70520	70520
416.68	1070.01	72015	72015
421.68	1065.01	72125	72125
426.68	1060.01	71920	71920
431.68	1055.01	73130	73130
436.68	1050.01	73615	73615
441.68	1045.01	75450	75450
446.68	1040.01	75440	75440
451.68	1035.01	75545	75545
456.68	1030.01	77385	77385
461.68	1025.01	78065	78065
466.68	1020.01	79625	79625
471.68	1015.01	79425	79425
476.68	1010.01	79155	79155
481.68	1005.01	80925	80925
486.68	1000.01	83660	83660
491.68	995.01	82170	82170
496.68	990.01	77050	77050
501.68	985.01	76695	76695
506.68	980.01	86100	86100
511.68	975.01	88075	88075
516.68	970.01	77655	77655
521.68	965.01	64930	64930
526.68	960.01	62910	62910
531.68	955.01	62240	62240
536.68	950.01	61785	61785
541.68	945.01	62230	62230
546.68	940.01	62870	62870
551.68	935.01	62955	62955
556.68	930.01	63295	63295
561.68	925.01	63275	63275
566.68	920.01	61985	61985
571.68	915.01	63165	63165
576.68	910.01	62935	62935
581.68	905.01	63665	63665
586.68	900.01	63635	63635
591.68	895.01	63765	63765
596.68	890.01	63535	63535
601.68	885.01	62610	62610
606.68	880.01	62560	62560
611.68	875.01	61790	61790
616.68	870.01	61735	61735
621.68	865.01	61870	61870
626.68	860.01	62945	62945
631.68	855.01	62800	62800
636.68	850.01	61405	61405
641.68	845.01	61805	61805
646.68	840.01	61490	61490
651.68	835.01	61095	61095
656.68	830.01	60860	60860
661.68	825.01	60030	60030
666.68	820.01	59925	59925
671.68	815.01	60720	60720
676.68	810.01	61005	61005
681.68	805.01	60610	60610
686.68	800.01	61220	61220
691.68	795.01	61320	61320
696.68	790.01	61770	61770
701.68	785.01	61740	61740
706.68	780.01	62285	62285
711.68	775.01	60920	60920
716.68	770.01	60980	60980
721.68	765.01	60915	60915
726.68	760.01	60405	60405
731.68	755.01	60845	60845
736.68	750.01	61635	61635
741.68	745.01	61810	61810
746.68	740.01	60660	60660
751.68	735.01	61585	61585
756.68	730.01	61375	61375
761.68	725.01	62940	62940
766.68	720.01	61315	61315
771.68	715.01	60850	60850
776.68	710.01	61695	61695
781.68	705.01	56935	56935
786.68	700.01	56770	56770
791.68	695.01	57785	57785
796.68	690.01	56975	56975
801.68	685.01	56770	56770
806.68	680.01	56915	56915
811.68	675.01	58320	58320
816.68	670.01	58145	58145
821.68	665.01	58495	58495
826.68	660.01	58730	58730
831.68	655.01	58570	58570
836.68	650.01	59120	59120
841.68	645.01	59330	59330
846.68	640.01	60190	60190
851.68	635.01	59470	59470
856.68	630.01	59210	59210
861.68	625.01	59760	59760
866.68	620.01	60200	60200
871.68	615.01	59915	59915
876.68	610.01	60110	60110
881.68	605.01	60570	60570
886.68	600.01	60465	60465
891.68	595.01	60775	60775
896.68	590.01	61035	61035
901.68	585.01	63385	63385
906.68	580.01	61610	61610
911.68	575.01	62670	62670
916.68	570.01	59840	59840
921.68	565.01	59845	59845
926.68	560.01	62960	62960
931.68	555.01	64105	64105
936.68	550.01	58990	58990
941.68	545.01	51845	51845
946.68	540.01	47370	47370
951.68	535.01	70295	46907.3
956.68	530.01	76105	38494.5
961.68	525.01	38105	38105
966.68	520.01	37455	37455
971.68	515.01	37500	37500
976.68	510.01	37500	37500
981.68	505.01	38065	38065
986.68	500.01	38060	38060
991.68	495.01	38705	38705
996.68	490.01	38735	38735
1001.68	485.01	38345	38345
1006.68	480.01	38625	38625
1011.68	475.01	39505	39505
1016.68	470.01	39735	39735
1021.68	465.01	39920	39920
1026.68	460.01	40300	40300
1031.68	455.01	40750	40750
1036.68	450.01	39995	39995
1041.68	445.01	40350	40350
1046.68	440.01	42040	42040
1051.68	435.01	40815	40815
1056.68	430.01	41370	41370
1061.68	425.01	41725	41725
1066.68	420.01	41340	41340
1071.68	415.01	41700	41700
1076.68	410.01	42280	42280
1081.68	405.01	43020	43020
1086.68	400.01	45470	42612.6
1091.68	395.01	42710	42710
1096.68	390.01	43505	43505
1101.68	385.01	43845	43845
1106.68	380.01	43800	43800
1111.68	375.01	43780	43780
1116.68	370.01	44520	44520
1121.68	365.01	44635	44635
1126.68	360.01	44680	44680
1131.68	355.01	45645	45645
1136.68	350.01	47535	47535
1141.68	345.01	46440	46440
1146.68	340.01	47140	47140
1151.68	335.01	44995	44995
1156.68	330.01	45820	45820
1161.68	325.01	46475	46475
1166.68	320.01	48375	48375
1171.68	315.01	50690	50690
1176.68	310.01	51450	51450
1181.68	305.01	44760	44760
1186.68	300.01	32645	32645
1191.68	295.01	27550	27286.8
1196.68	290.01	42175	26732.1
1201.68	285.01	189580	16942.6
1206.68	280.01	10550	9880
1211.68	275.01	8825	8825
1216.68	270.01	9185	9185
1221.68	265.01	8490	8490
1226.68	260.01	8390	8390
1231.68	255.01	8530	8530
1236.68	250.01	8490	8490
1241.68	245.01	8580	8580
1246.68	240.01	8505	8505
1251.68	235.01	8720	8720
1256.68	230.01	8855	8855
1261.68	225.01	8460	8460
1266.68	220.01	8635	8635
1271.68	215.01	8430	8430
1276.68	210.01	8535	8535
1281.68	205.01	8370	8370
1286.68	200.01	9880	8537.74
1291.68	195.01	8545	8545
1296.68	190.01	8660	8660
1301.68	185.01	8420	8420
1306.68	180.01	8325	8325
1311.68	175.01	8535	8535
1316.68	170.01	9375	8218.6
1321.68	165.01	8080	8080
1326.68	160.01	8325	8325
1331.68	155.01	10010	10010
1336.68	150.01	8110	8110
1341.68	145.01	7995	7995
1346.68	140.01	7775	7775
1351.68	135.01	8270	8270
1356.68	130.01	8260	8260
1361.68	125.01	8410	8410
1366.68	120.01	7980	7980
1371.68	115.01	7620	7620
1376.68	110.01	7485	7485
1381.68	105.01	8660	7828.4
1386.68	100.01	8265	7343.94
1391.68	95.01	7660	7660
1396.68	90.01	8145	8145
1401.68	85.01	6705	6705
1406.68	80.01	6815	6815
1411.68	75.01	7195	7195
1416.68	70.01	6500	6500
1421.68	65.01	6385	6385
1426.68	60.01	5900	5900
1431.68	55.01	6740	6740
1436.68	50.01	5250	5250
1441.68	45.01	5650	5650
1446.68	40.01	4365	4365
1451.68	35.01	3710	3710
1456.68	30.01	4755	4755
1461.68	25.01	6800	6800
1466.68	20.01	4325	4325
1471.68	15.01	4380	4380
1476.68	10.01	3215	3215
1481.68	5.01	2230	2230
1486.68	0.01	510	510