Folder: graphene-production/data/derived_data/xps/20171212_Gr-NH2 (part 3)

File: 20171212_GrNH2_N1s_1.txt
C:\Users\emilbp\PhD\Projects\graphene-production\data\raw_data\xps\20171212_Gr-NH2\20171130_Gr-NH2.vms
N 1s/9
	Characteristic Energy eV	1486.69	Acquisition Time s	1.194
KE_N 1s/9	BE_N 1s/9	CPS_N 1s/9	Background_N 1s/9
1072.87	413.824	2012.56	2012.56
1072.97	413.724	2035.18	2035.18
1073.07	413.624	2039.36	2039.36
1073.17	413.524	2063.65	2063.65
1073.27	413.424	2056.95	2056.95
1073.37	413.324	2067.84	2067.84
1073.47	413.224	2094.64	2094.64
1073.57	413.124	2078.73	2078.73
1073.67	413.024	2084.59	2084.59
1073.77	412.924	2053.6	2053.6
1073.87	412.824	2036.01	2036.01
1073.97	412.724	2004.19	2004.19
1074.07	412.624	2041.88	2041.88
1074.17	412.524	1989.11	1989.11
1074.27	412.424	2026.8	2026.8
1074.37	412.324	2042.71	2042.71
1074.47	412.224	2110.55	2110.55
1074.57	412.124	2092.13	2092.13
1074.67	412.024	2025.96	2025.96
1074.77	411.924	2052.76	2052.76
1074.87	411.824	2056.95	2056.95
1074.97	411.724	2005.03	2005.03
1075.07	411.624	1994.97	1994.97
1075.17	411.524	1993.3	1993.3
1075.27	411.424	2061.98	2061.98
1075.37	411.324	2062.81	2062.81
1075.47	411.224	2020.94	2020.94
1075.57	411.124	2062.81	2062.81
1075.67	411.024	1980.74	1980.74
1075.77	410.924	2010.89	2010.89
1075.87	410.824	2013.4	2013.4
1075.97	410.724	2049.41	2049.41
1076.07	410.624	2082.08	2082.08
1076.17	410.524	2044.39	2044.39
1076.27	410.424	2106.37	2106.37
1076.37	410.324	2070.35	2070.35
1076.47	410.224	2075.38	2075.38
1076.57	410.124	2047.74	2047.74
1076.67	410.024	2104.69	2104.69
1076.77	409.924	2016.75	2016.75
1076.87	409.824	2064.49	2064.49
1076.97	409.724	2044.39	2044.39
1077.07	409.624	2015.08	2015.08
1077.17	409.524	2044.39	2044.39
1077.27	409.424	2030.15	2030.15
1077.37	409.324	2015.91	2015.91
1077.47	409.224	2037.69	2037.69
1077.57	409.124	1989.95	1989.95
1077.67	409.024	1974.87	1974.87
1077.77	408.924	1989.95	1989.95
1077.87	408.824	2011.73	2011.73
1077.97	408.724	2033.5	2033.5
1078.07	408.624	2052.76	2052.76
1078.17	408.524	2078.73	2078.73
1078.27	408.424	2014.24	2014.24
1078.37	408.324	2024.29	2024.29
1078.47	408.224	2054.44	2054.44
1078.57	408.124	2051.09	2051.09
1078.67	408.024	2046.06	2046.06
1078.77	407.924	2077.05	2077.05
1078.87	407.824	2050.25	2050.25
1078.97	407.724	2075.38	2075.38
1079.07	407.624	2005.86	2005.86
1079.17	407.524	2022.61	2022.61
1079.27	407.424	2007.54	2007.54
1079.37	407.324	2092.96	2092.96
1079.47	407.224	2054.44	2054.44
1079.57	407.124	2066.16	2066.16
1079.67	407.024	2097.99	2097.99
1079.77	406.924	2091.29	2091.29
1079.87	406.824	2094.64	2094.64
1079.97	406.724	2016.75	2016.75
1080.07	406.624	2097.99	2097.99
1080.17	406.524	2045.23	2045.23
1080.27	406.424	2058.63	2058.63
1080.37	406.324	2019.26	2019.26
1080.47	406.224	2072.03	2072.03
1080.57	406.124	2082.08	2082.08
1080.67	406.024	2079.56	2079.56
1080.77	405.924	2078.73	2078.73
1080.87	405.824	2076.21	2076.21
1080.97	405.724	2056.11	2056.11
1081.07	405.624	2074.54	2074.54
1081.17	405.524	2075.38	2075.38
1081.27	405.424	2149.08	2149.08
1081.37	405.324	2145.73	2145.73
1081.47	405.224	2165.83	2165.83
1081.57	405.124	2118.93	2118.93
1081.67	405.024	2164.15	2164.15
1081.77	404.924	2195.98	2195.98
1081.87	404.824	2201.84	2201.84
1081.97	404.724	2309.05	2309.05
1082.07	404.624	2269.68	2269.68
1082.17	404.524	2281.41	2281.41
1082.27	404.424	2354.27	2354.27
1082.37	404.324	2338.36	2338.36
1082.47	404.224	2234.51	2234.51
1082.57	404.124	2244.56	2244.56
1082.67	404.024	2206.87	2206.87
1082.77	403.924	2174.2	2174.2
1082.87	403.824	2225.29	2225.29
1082.97	403.724	2191.79	2191.79
1083.07	403.624	2240.37	2240.37
1083.17	403.524	2220.27	2220.27
1083.27	403.424	2189.28	2189.28
1083.37	403.324	2188.44	2188.44
1083.47	403.224	2186.77	2186.77
1083.57	403.124	2154.94	2154.94
1083.67	403.024	2119.77	2119.77
1083.77	402.924	2114.74	2114.74
1083.87	402.824	2163.32	2163.32
1083.97	402.724	2181.74	2181.74
1084.07	402.624	2180.07	2180.07
1084.17	402.524	2139.03	2139.03
1084.27	402.424	2102.18	2102.18
1084.37	402.324	2144.89	2144.89
1084.47	402.224	2165.83	2165.83
1084.57	402.124	2185.93	2185.93
1084.67	402.024	2151.59	2151.59
1084.77	401.924	2140.7	2140.7
1084.87	401.824	2159.13	2159.13
1084.97	401.724	2205.19	2205.19
1085.07	401.624	2164.15	2164.15
1085.17	401.524	2212.73	2212.73
1085.27	401.424	2221.11	2221.11
1085.37	401.324	2185.09	2185.09
1085.47	401.224	2216.08	2216.08
1085.57	401.124	2275.54	2275.54
1085.67	401.024	2221.94	2221.94
1085.77	400.924	2288.94	2288.94
1085.87	400.824	2298.99	2298.99
1085.97	400.724	2323.28	2323.28
1086.07	400.624	2328.31	2328.31
1086.17	400.524	2345.06	2345.06
1086.27	400.424	2338.36	2338.36
1086.37	400.324	2415.41	2415.41
1086.47	400.224	2440.54	2440.54
1086.57	400.124	2422.11	2422.11
1086.67	400.024	2459.8	2459.8
1086.77	399.924	2479.9	2479.9
1086.87	399.824	2447.24	2447.24
1086.97	399.724	2460.64	2460.64
1087.07	399.624	2391.96	2391.96
1087.17	399.524	2394.47	2394.47
1087.27	399.424	2383.58	2383.58
1087.37	399.324	2366.83	2366.83
1087.47	399.224	2304.02	2304.02
1087.57	399.124	2283.08	2283.08
1087.67	399.024	2228.64	2228.64
1087.77	398.924	2098.83	2098.83
1087.87	398.824	2184.25	2184.25
1087.97	398.724	2171.69	2171.69
1088.07	398.624	2085.43	2085.43
1088.17	398.524	2101.34	2101.34
1088.27	398.424	2079.56	2079.56
1088.37	398.324	2094.64	2094.64
1088.47	398.224	2087.94	2087.94
1088.57	398.124	2083.75	2083.75
1088.67	398.024	2075.38	2075.38
1088.77	397.924	1981.57	1981.57
1088.87	397.824	1999.16	1999.16
1088.97	397.724	2072.03	2072.03
1089.07	397.624	2030.15	2030.15
1089.17	397.524	2028.48	2028.48
1089.27	397.424	1958.96	1958.96
1089.37	397.324	2053.6	2053.6
1089.47	397.224	2057.79	2057.79
1089.57	397.124	2054.44	2054.44
1089.67	397.024	2037.69	2037.69
1089.77	396.924	2049.41	2049.41
1089.87	396.824	2019.26	2019.26
1089.97	396.724	2025.96	2025.96
1090.07	396.624	2044.39	2044.39
1090.17	396.524	2053.6	2053.6
1090.27	396.424	2039.36	2039.36
1090.37	396.324	2057.79	2057.79
1090.47	396.224	2056.95	2056.95
1090.57	396.124	2041.04	2041.04
1090.67	396.024	2083.75	2083.75
1090.77	395.924	2069.51	2069.51
1090.87	395.824	2083.75	2083.75
1090.97	395.724	2079.56	2079.56
1091.07	395.624	2057.79	2057.79
1091.17	395.524	2064.49	2064.49
1091.27	395.424	1994.14	1994.14
1091.37	395.324	2051.09	2051.09
1091.47	395.224	1974.04	1974.04
1091.57	395.124	2004.19	2004.19
1091.67	395.024	2027.64	2027.64
1091.77	394.924	2056.11	2056.11
1091.87	394.824	2039.36	2039.36
1091.97	394.724	2004.19	2004.19
1092.07	394.624	2006.7	2006.7
1092.17	394.524	2054.44	2054.44
1092.27	394.424	2016.75	2016.75
1092.37	394.324	2049.41	2049.41
1092.47	394.224	2042.71	2042.71
1092.57	394.124	2085.43	2085.43
1092.67	394.024	2077.89	2077.89
1092.77	393.924	2052.76	2052.76
1092.87	393.824	2035.18	2035.18
1092.97	393.724	2061.98	2061.98

File: 20171212_GrNH2_N1s_2.txt
C:\Users\emilbp\PhD\Projects\graphene-production\data\raw_data\xps\20171212_Gr-NH2\20171130_Gr-NH2.vms
N 1s/4
	Characteristic Energy eV	1486.69	Acquisition Time s	1.194
KE_N 1s/4	BE_N 1s/4	CPS_N 1s/4	Background_N 1s/4
1073.08	413.612	2252.09	2252.09
1073.18	413.512	2163.32	2163.32
1073.28	413.412	2221.94	2221.94
1073.38	413.312	2155.78	2155.78
1073.48	413.212	2164.15	2164.15
1073.58	413.112	2199.33	2199.33
1073.68	413.012	2175.88	2175.88
1073.78	412.912	2211.89	2211.89
1073.88	412.812	2175.88	2175.88
1073.98	412.712	2180.07	2180.07
1074.08	412.612	2247.07	2247.07
1074.18	412.512	2178.39	2178.39
1074.28	412.412	2202.68	2202.68
1074.38	412.312	2228.64	2228.64
1074.48	412.212	2175.88	2175.88
1074.58	412.112	2180.07	2180.07
1074.68	412.012	2211.89	2211.89
1074.78	411.912	2243.72	2243.72
1074.88	411.812	2180.07	2180.07
1074.98	411.712	2248.74	2248.74
1075.08	411.612	2225.29	2225.29
1075.18	411.512	2163.32	2163.32
1075.28	411.412	2172.53	2172.53
1075.38	411.312	2236.18	2236.18
1075.48	411.212	2329.15	2329.15
1075.58	411.112	2168.34	2168.34
1075.68	411.012	2209.38	2209.38
1075.78	410.912	2253.77	2253.77
1075.88	410.812	2212.73	2212.73
1075.98	410.712	2210.22	2210.22
1076.08	410.612	2157.45	2157.45
1076.18	410.512	2165.83	2165.83
1076.28	410.412	2182.58	2182.58
1076.38	410.312	2249.58	2249.58
1076.48	410.212	2188.44	2188.44
1076.58	410.112	2176.72	2176.72
1076.68	410.012	2198.49	2198.49
1076.78	409.912	2195.14	2195.14
1076.88	409.812	2214.41	2214.41
1076.98	409.712	2226.13	2226.13
1077.08	409.612	2239.53	2239.53
1077.18	409.512	2213.57	2213.57
1077.28	409.412	2206.03	2206.03
1077.38	409.312	2223.62	2223.62
1077.48	409.212	2234.51	2234.51
1077.58	409.112	2164.15	2164.15
1077.68	409.012	2199.33	2199.33
1077.78	408.912	2228.64	2228.64
1077.88	408.812	2206.87	2206.87
1077.98	408.712	2154.1	2154.1
1078.08	408.612	2199.33	2199.33
1078.18	408.512	2185.09	2185.09
1078.28	408.412	2167.5	2167.5
1078.38	408.312	2221.11	2221.11
1078.48	408.212	2212.73	2212.73
1078.58	408.112	2227.81	2227.81
1078.68	408.012	2206.87	2206.87
1078.78	407.912	2183.42	2183.42
1078.88	407.812	2213.57	2213.57
1078.98	407.712	2189.28	2189.28
1079.08	407.612	2154.1	2154.1
1079.18	407.512	2236.18	2236.18
1079.28	407.412	2186.77	2186.77
1079.38	407.312	2180.07	2180.07
1079.48	407.212	2195.98	2195.98
1079.58	407.112	2213.57	2213.57
1079.68	407.012	2226.13	2226.13
1079.78	406.912	2190.95	2190.95
1079.88	406.812	2278.06	2278.06
1079.98	406.712	2173.37	2173.37
1080.08	406.612	2224.46	2224.46
1080.18	406.512	2185.09	2185.09
1080.28	406.412	2149.08	2149.08
1080.38	406.312	2226.97	2226.97
1080.48	406.212	2276.38	2276.38
1080.58	406.112	2246.23	2246.23
1080.68	406.012	2245.39	2245.39
1080.78	405.912	2230.32	2230.32
1080.88	405.812	2179.23	2179.23
1080.98	405.712	2134	2134
1081.08	405.612	2221.94	2221.94
1081.18	405.512	2201.01	2201.01
1081.28	405.412	2170.85	2170.85
1081.38	405.312	2167.5	2167.5
1081.48	405.212	2231.99	2231.99
1081.58	405.112	2216.08	2216.08
1081.68	405.012	2213.57	2213.57
1081.78	404.912	2168.34	2168.34
1081.88	404.812	2126.47	2126.47
1081.98	404.712	2183.42	2183.42
1082.08	404.612	2175.04	2175.04
1082.18	404.512	2231.16	2231.16
1082.28	404.412	2224.46	2224.46
1082.38	404.312	2231.16	2231.16
1082.48	404.212	2235.34	2235.34
1082.58	404.112	2192.63	2192.63
1082.68	404.012	2194.3	2194.3
1082.78	403.912	2197.65	2197.65
1082.88	403.812	2192.63	2192.63
1082.98	403.712	2185.09	2185.09
1083.08	403.612	2170.85	2170.85
1083.18	403.512	2186.77	2186.77
1083.28	403.412	2245.39	2245.39
1083.38	403.312	2221.94	2221.94
1083.48	403.212	2224.46	2224.46
1083.58	403.112	2226.97	2226.97
1083.68	403.012	2238.69	2238.69
1083.78	402.912	2233.67	2233.67
1083.88	402.812	2270.52	2270.52
1083.98	402.712	2287.27	2287.27
1084.08	402.612	2242.04	2242.04
1084.18	402.512	2226.13	2226.13
1084.28	402.412	2233.67	2233.67
1084.38	402.312	2266.33	2266.33
1084.48	402.212	2180.9	2180.9
1084.58	402.112	2273.87	2273.87
1084.68	402.012	2302.35	2302.35
1084.78	401.912	2314.07	2314.07
1084.88	401.812	2308.21	2308.21
1084.98	401.712	2324.12	2324.12
1085.08	401.612	2263.82	2263.82
1085.18	401.512	2277.22	2277.22
1085.28	401.412	2340.87	2340.87
1085.38	401.312	2345.9	2345.9
1085.48	401.212	2353.43	2353.43
1085.58	401.112	2335.85	2335.85
1085.68	401.012	2352.6	2352.6
1085.78	400.912	2369.35	2369.35
1085.88	400.812	2351.76	2351.76
1085.98	400.712	2350.92	2350.92
1086.08	400.612	2319.1	2319.1
1086.18	400.512	2422.95	2422.95
1086.28	400.412	2525.96	2525.96
1086.38	400.312	2492.46	2492.46
1086.48	400.212	2478.22	2478.22
1086.58	400.112	2501.68	2501.68
1086.68	400.012	2517.59	2517.59
1086.78	399.912	2595.48	2595.48
1086.88	399.812	2560.3	2560.3
1086.98	399.712	2605.53	2605.53
1087.08	399.612	2646.57	2646.57
1087.18	399.512	2581.24	2581.24
1087.28	399.412	2576.21	2576.21
1087.38	399.312	2431.32	2431.32
1087.48	399.212	2458.96	2458.96
1087.58	399.112	2501.68	2501.68
1087.68	399.012	2424.62	2424.62
1087.78	398.912	2338.36	2338.36
1087.88	398.812	2356.78	2356.78
1087.98	398.712	2314.91	2314.91
1088.08	398.612	2263.82	2263.82
1088.18	398.512	2281.41	2281.41
1088.28	398.412	2242.04	2242.04
1088.38	398.312	2259.63	2259.63
1088.48	398.212	2265.49	2265.49
1088.58	398.112	2245.39	2245.39
1088.68	398.012	2239.53	2239.53
1088.78	397.912	2203.52	2203.52
1088.88	397.812	2225.29	2225.29
1088.98	397.712	2200.17	2200.17
1089.08	397.612	2196.82	2196.82
1089.18	397.512	2237.02	2237.02
1089.28	397.412	2208.54	2208.54
1089.38	397.312	2190.12	2190.12
1089.48	397.212	2254.61	2254.61
1089.58	397.112	2231.99	2231.99
1089.68	397.012	2294.81	2294.81
1089.78	396.912	2172.53	2172.53
1089.88	396.812	2175.04	2175.04
1089.98	396.712	2218.59	2218.59
1090.08	396.612	2199.33	2199.33
1090.18	396.512	2194.3	2194.3
1090.28	396.412	2205.19	2205.19
1090.38	396.312	2199.33	2199.33
1090.48	396.212	2238.69	2238.69
1090.58	396.112	2175.88	2175.88
1090.68	396.012	2225.29	2225.29
1090.78	395.912	2175.04	2175.04
1090.88	395.812	2220.27	2220.27
1090.98	395.712	2206.03	2206.03
1091.08	395.612	2148.24	2148.24
1091.18	395.512	2172.53	2172.53
1091.28	395.412	2232.83	2232.83
1091.38	395.312	2159.97	2159.97
1091.48	395.212	2248.74	2248.74
1091.58	395.112	2200.17	2200.17
1091.68	395.012	2228.64	2228.64
1091.78	394.912	2220.27	2220.27
1091.88	394.812	2149.92	2149.92
1091.98	394.712	2139.03	2139.03
1092.08	394.612	2261.31	2261.31
1092.18	394.512	2108.88	2108.88
1092.28	394.412	2221.94	2221.94
1092.38	394.312	2231.99	2231.99
1092.48	394.212	2222.78	2222.78
1092.58	394.112	2221.94	2221.94
1092.68	394.012	2125.63	2125.63
1092.78	393.912	2169.18	2169.18
1092.88	393.812	2252.93	2252.93
1092.98	393.712	2267.17	2267.17
1093.08	393.612	2262.14	2262.14
1093.18	393.512	2206.03	2206.03